trial	trial_type	stimulus	fontsize	response	accuracy	reactiontime
1	go	1	10	1	1	549
2	go	4	10	1	1	350
3	go	1	13	1	1	327
4	go	1	7	1	1	278
5	go	5	16	1	1	284
6	go	1	10	1	1	401
7	go	8	13	1	1	275
8	go	6	7	1	1	373
9	go	5	10	1	1	357
10	go	7	13	1	1	421
11	go	7	13	1	1	397
12	go	9	10	1	1	390
13	go	2	10	1	1	299
14	nogo	3	16	1	0	390
15	go	8	7	1	1	453
16	go	5	13	1	1	433
17	go	5	16	1	1	368
18	go	6	7	1	1	371
19	go	1	13	1	1	376
20	go	8	10	1	1	346
21	go	9	16	1	1	314
22	go	8	4	1	1	386
23	go	2	16	1	1	375
24	go	7	7	1	1	336
25	go	6	7	1	1	300
26	go	4	7	1	1	368
27	go	8	7	1	1	305
28	go	6	16	1	1	354
29	go	8	7	1	1	304
30	go	2	10	1	1	237
31	go	9	10	1	1	276
32	go	8	16	1	1	358
33	go	9	7	1	1	332
34	go	5	10	1	1	360
35	go	2	10	1	1	340
36	go	4	7	1	1	397
37	nogo	3	10	1	0	307
38	go	5	4	1	1	357
39	go	5	4	1	1	395
40	go	6	4	1	1	342
41	nogo	3	13	1	0	357
42	go	2	16	1	1	327
43	go	7	4	1	1	334
44	go	5	4	1	1	375
45	go	7	7	1	1	318
46	go	8	4	1	1	359
47	go	2	7	1	1	325
48	go	7	13	1	1	337
49	go	4	13	1	1	318
50	go	1	16	1	1	387
51	nogo	3	16	0	1	n/a
52	go	7	4	1	1	257
53	go	4	7	1	1	302
54	go	6	4	1	1	408
55	go	4	13	1	1	351
56	go	8	10	1	1	347
57	go	8	16	1	1	395
58	go	4	13	1	1	384
59	go	1	10	1	1	381
60	go	9	13	1	1	324
61	go	9	10	1	1	255
62	go	4	7	1	1	299
63	go	8	10	1	1	401
64	go	2	10	1	1	366
65	go	2	10	1	1	370
66	go	8	16	1	1	323
67	go	7	7	1	1	400
68	nogo	3	16	1	0	347
69	go	4	10	1	1	279
70	go	7	13	1	1	518
71	go	1	10	1	1	473
72	go	4	13	1	1	431
73	nogo	3	16	0	1	n/a
74	go	5	4	1	1	244
75	go	9	7	1	1	364
76	go	8	4	1	1	327
77	go	4	13	1	1	320
78	go	7	4	1	1	333
79	go	4	4	1	1	372
80	go	1	10	1	1	487
81	go	2	10	1	1	449
82	go	6	4	1	1	430
83	go	6	13	1	1	405
84	go	4	13	1	1	348
85	go	6	10	1	1	334
86	go	6	7	1	1	307
87	go	9	16	1	1	322
88	go	9	7	1	1	334
89	go	7	4	1	1	383
90	go	6	10	1	1	304
91	go	4	13	1	1	317
92	go	1	16	1	1	335
93	go	7	13	1	1	347
94	nogo	3	13	0	1	n/a
95	nogo	3	4	1	0	315
96	go	9	16	1	1	353
97	go	8	10	1	1	409
98	go	2	4	1	1	388
99	go	7	4	1	1	381
100	go	6	16	1	1	323
101	go	6	4	1	1	389
102	go	1	13	1	1	268
103	go	9	10	1	1	303
104	go	9	16	1	1	366
105	nogo	3	16	1	0	324
106	go	1	7	1	1	302
107	go	4	13	1	1	574
108	go	1	7	1	1	437
109	go	1	4	1	1	314
110	go	2	7	1	1	384
111	nogo	3	16	0	1	n/a
112	go	6	4	1	1	376
113	go	8	10	1	1	353
114	go	5	10	1	1	372
115	go	9	10	1	1	420
116	nogo	3	7	0	1	n/a
117	go	9	10	1	1	314
118	go	5	16	1	1	307
119	go	5	4	1	1	294
120	go	4	16	1	1	304
121	go	2	16	1	1	313
122	go	6	13	1	1	362
123	go	8	16	1	1	309
124	nogo	3	7	0	1	n/a
125	go	8	7	1	1	262
126	go	4	4	1	1	315
127	go	4	10	1	1	319
128	go	2	7	1	1	334
129	go	5	13	1	1	328
130	go	2	13	1	1	364
131	go	1	7	1	1	385
132	go	1	16	1	1	309
133	go	5	7	1	1	277
134	go	9	13	1	1	321
135	go	5	7	1	1	452
136	go	4	16	1	1	359
137	go	5	16	1	1	438
138	nogo	3	4	1	0	384
139	go	4	13	1	1	308
140	go	2	7	1	1	392
141	go	5	13	1	1	618
142	go	6	13	1	1	393
143	go	9	7	1	1	391
144	go	4	7	1	1	390
145	go	6	16	1	1	326
146	nogo	3	16	0	1	n/a
147	go	1	4	1	1	362
148	go	5	7	1	1	412
149	go	5	10	1	1	450
150	go	4	13	1	1	352
151	go	6	13	1	1	440
152	go	4	10	1	1	324
153	go	5	13	1	1	304
154	go	5	16	1	1	290
155	go	6	13	1	1	399
156	go	2	13	1	1	334
157	nogo	3	7	1	0	270
158	go	8	4	1	1	271
159	nogo	3	7	0	1	n/a
160	go	1	10	1	1	339
161	go	9	10	1	1	295
162	nogo	3	13	1	0	346
163	go	2	4	1	1	396
164	go	7	16	1	1	409
165	go	6	13	1	1	402
166	go	6	16	1	1	440
167	go	2	4	1	1	376
168	go	2	10	1	1	302
169	go	8	10	1	1	361
170	go	8	16	1	1	271
171	go	6	7	1	1	301
172	nogo	3	13	0	1	n/a
173	go	2	13	1	1	303
174	go	1	4	1	1	269
175	go	6	13	1	1	304
176	go	1	16	1	1	333
177	nogo	3	16	1	0	320
178	go	1	7	1	1	250
179	go	7	13	1	1	348
180	go	2	7	1	1	319
181	go	9	4	1	1	378
182	go	9	4	1	1	305
183	go	8	4	1	1	448
184	go	7	4	1	1	329
185	go	2	7	1	1	368
186	go	7	4	1	1	415
187	go	9	4	1	1	373
188	go	7	4	1	1	422
189	go	1	7	1	1	307
190	go	4	4	1	1	372
191	go	8	13	1	1	345
192	go	5	7	1	1	380
193	go	9	16	1	1	384
194	go	5	10	1	1	265
195	go	6	10	1	1	443
196	go	9	7	1	1	344
197	nogo	3	16	1	0	238
198	go	9	16	1	1	278
199	go	8	4	1	1	317
200	go	7	7	1	1	356
201	nogo	3	10	1	0	353
202	go	4	16	1	1	245
203	nogo	3	4	1	0	309
204	go	1	13	1	1	466
205	go	6	7	1	1	390
206	go	5	16	1	1	419
207	go	9	16	1	1	358
208	go	2	16	1	1	471
209	go	7	10	1	1	304
210	go	7	13	1	1	393
211	go	1	4	1	1	504
212	go	8	10	1	1	339
213	go	7	7	1	1	359
214	go	1	13	1	1	305
215	go	7	10	1	1	419
216	nogo	3	16	0	1	n/a
217	nogo	3	4	1	0	363
218	go	2	4	1	1	537
219	go	2	10	1	1	393
220	go	7	4	1	1	386
221	go	5	10	1	1	362
222	nogo	3	16	1	0	392
223	go	7	13	1	1	363
224	go	8	4	1	1	635
225	go	9	4	1	1	371
