trial	trial_type	stimulus	fontsize	response	accuracy	reactiontime
1	go	1	16	1	1	491
2	go	4	10	1	1	420
3	go	1	13	1	1	345
4	go	1	4	1	1	359
5	go	5	4	1	1	374
6	go	1	4	1	1	367
7	go	8	10	1	1	314
8	go	6	16	1	1	250
9	go	5	16	1	1	306
10	go	7	16	1	1	304
11	go	7	10	1	1	324
12	go	9	10	1	1	317
13	go	2	10	1	1	306
14	nogo	3	4	0	1	n/a
15	go	8	10	1	1	491
16	go	5	10	1	1	447
17	go	5	7	1	1	217
18	go	6	16	1	1	345
19	go	1	7	1	1	321
20	go	8	7	1	1	248
21	go	9	4	1	1	245
22	go	8	13	1	1	305
23	go	2	10	1	1	313
24	go	7	13	1	1	386
25	go	6	4	1	1	366
26	go	4	16	1	1	482
27	go	8	7	1	1	298
28	go	6	16	1	1	329
29	go	8	10	1	1	443
30	go	2	10	1	1	375
31	go	9	4	1	1	452
32	go	8	4	1	1	400
33	go	9	4	1	1	431
34	go	5	16	1	1	367
35	go	2	4	1	1	372
36	go	4	7	1	1	265
37	nogo	3	10	1	0	142
38	go	5	16	1	1	317
39	go	5	7	1	1	299
40	go	6	4	1	1	301
41	nogo	3	7	1	0	365
42	go	2	10	1	1	633
43	go	7	16	1	1	367
44	go	5	10	1	1	336
45	go	7	10	1	1	287
46	go	8	13	1	1	188
47	go	2	13	1	1	134
48	go	7	7	1	1	397
49	go	4	13	1	1	481
50	go	1	10	1	1	336
51	nogo	3	7	1	0	391
52	go	7	10	1	1	362
53	go	4	7	1	1	377
54	go	6	10	1	1	414
55	go	4	10	1	1	361
56	go	8	4	1	1	427
57	go	8	16	1	1	394
58	go	4	4	1	1	436
59	go	1	13	1	1	377
60	go	9	4	1	1	444
61	go	9	13	1	1	414
62	go	4	13	1	1	348
63	go	8	4	1	1	408
64	go	2	7	1	1	396
65	go	2	13	1	1	344
66	go	8	10	1	1	359
67	go	7	4	1	1	455
68	nogo	3	16	1	0	367
69	go	4	7	1	1	304
70	go	7	4	1	1	508
71	go	1	10	1	1	428
72	go	4	4	1	1	318
73	nogo	3	7	1	0	359
74	go	5	7	1	1	423
75	go	9	4	1	1	370
76	go	8	7	1	1	385
77	go	4	13	1	1	343
78	go	7	4	1	1	281
79	go	4	16	1	1	307
80	go	1	16	1	1	405
81	go	2	16	1	1	398
82	go	6	4	1	1	310
83	go	6	16	1	1	405
84	go	4	13	1	1	442
85	go	6	4	1	1	447
86	go	6	16	1	1	416
87	go	9	4	1	1	493
88	go	9	13	1	1	440
89	go	7	7	1	1	434
90	go	6	7	1	1	406
91	go	4	7	1	1	431
92	go	1	16	1	1	428
93	go	7	16	1	1	439
94	nogo	3	13	0	1	n/a
95	nogo	3	13	1	0	378
96	go	9	7	1	1	534
97	go	8	4	1	1	645
98	go	2	16	1	1	378
99	go	7	7	1	1	306
100	go	6	13	1	1	319
101	go	6	16	1	1	333
102	go	1	10	1	1	325
103	go	9	10	1	1	454
104	go	9	4	1	1	377
105	nogo	3	10	1	0	523
106	go	1	10	1	1	330
107	go	4	7	1	1	360
108	go	1	13	1	1	371
109	go	1	10	1	1	459
110	go	2	10	1	1	363
111	nogo	3	13	0	1	n/a
112	go	6	4	1	1	698
113	go	8	13	1	1	694
114	go	5	4	1	1	596
115	go	9	13	1	1	492
116	nogo	3	13	1	0	414
117	go	9	4	1	1	733
118	go	5	4	1	1	685
119	go	5	4	1	1	535
120	go	4	13	1	1	441
121	go	2	7	1	1	309
122	go	6	4	1	1	352
123	go	8	13	1	1	400
124	nogo	3	13	1	0	342
125	go	8	16	1	1	447
126	go	4	7	1	1	384
127	go	4	10	1	1	595
128	go	2	7	1	1	571
129	go	5	10	1	1	433
130	go	2	7	1	1	356
131	go	1	10	1	1	577
132	go	1	7	1	1	611
133	go	5	7	1	1	636
134	go	9	4	1	1	652
135	go	5	10	1	1	420
136	go	4	10	1	1	552
137	go	5	7	1	1	706
138	nogo	3	13	0	1	n/a
139	go	4	16	1	1	360
140	go	2	7	1	1	624
141	go	5	16	1	1	751
142	go	6	10	1	1	727
143	go	9	13	1	1	561
144	go	4	13	1	1	322
145	go	6	16	1	1	276
146	nogo	3	16	1	0	329
147	go	1	13	1	1	358
148	go	5	10	1	1	369
149	go	5	16	1	1	330
150	go	4	10	1	1	448
151	go	6	4	1	1	507
152	go	4	7	1	1	528
153	go	5	16	1	1	379
154	go	5	7	1	1	372
155	go	6	7	1	1	260
156	go	2	16	1	1	224
157	nogo	3	10	1	0	247
158	go	8	4	1	1	295
159	nogo	3	10	1	0	257
160	go	1	4	1	1	306
161	go	9	7	1	1	394
162	nogo	3	7	1	0	363
163	go	2	16	1	1	502
164	go	7	13	1	1	348
165	go	6	7	1	1	318
166	go	6	7	1	1	377
167	go	2	10	1	1	295
168	go	2	16	1	1	257
169	go	8	13	1	1	313
170	go	8	16	1	1	306
171	go	6	4	1	1	483
172	nogo	3	16	0	1	n/a
173	go	2	16	1	1	243
174	go	1	13	1	1	335
175	go	6	16	1	1	317
176	go	1	13	1	1	306
177	nogo	3	13	1	0	236
178	go	1	4	1	1	413
179	go	7	10	1	1	322
180	go	2	13	1	1	339
181	go	9	4	1	1	427
182	go	9	13	1	1	346
183	go	8	16	1	1	237
184	go	7	13	1	1	234
185	go	2	16	1	1	227
186	go	7	13	1	1	305
187	go	9	7	1	1	280
188	go	7	7	1	1	272
189	go	1	13	1	1	264
190	go	4	7	1	1	337
191	go	8	4	1	1	327
192	go	5	4	1	1	305
193	go	9	10	1	1	312
194	go	5	16	1	1	265
195	go	6	10	1	1	341
196	go	9	4	1	1	302
197	nogo	3	16	1	0	278
198	go	9	7	1	1	359
199	go	8	16	1	1	138
200	go	7	16	1	1	270
201	nogo	3	10	0	1	n/a
202	go	4	4	1	1	305
203	nogo	3	16	1	0	292
204	go	1	10	1	1	314
205	go	6	10	1	1	313
206	go	5	7	1	1	390
207	go	9	4	1	1	382
208	go	2	7	1	1	306
209	go	7	16	1	1	187
210	go	7	13	1	1	304
211	go	1	13	1	1	306
212	go	8	13	1	1	268
213	go	7	7	1	1	468
214	go	1	10	1	1	433
215	go	7	13	1	1	312
216	nogo	3	13	1	0	170
217	nogo	3	13	0	1	n/a
218	go	2	16	1	1	379
219	go	2	4	1	1	502
220	go	7	7	1	1	397
221	go	5	16	1	1	288
222	nogo	3	4	1	0	321
223	go	7	7	1	1	314
224	go	8	10	1	1	296
225	go	9	13	1	1	169
