trial	trial_type	stimulus	fontsize	response	accuracy	reactiontime
1	go	1	4	1	1	703
2	go	4	4	1	1	430
3	go	1	13	1	1	343
4	go	1	7	1	1	375
5	go	5	10	1	1	379
6	go	1	7	1	1	340
7	go	8	7	1	1	330
8	go	6	7	1	1	301
9	go	5	16	1	1	337
10	go	7	4	1	1	372
11	go	7	7	1	1	307
12	go	9	10	1	1	327
13	go	2	13	1	1	325
14	nogo	3	16	0	1	n/a
15	go	8	4	1	1	372
16	go	5	4	1	1	349
17	go	5	7	1	1	335
18	go	6	13	1	1	328
19	go	1	16	1	1	320
20	go	8	13	1	1	313
21	go	9	4	1	1	363
22	go	8	4	1	1	337
23	go	2	10	1	1	326
24	go	7	10	1	1	325
25	go	6	13	1	1	344
26	go	4	4	1	1	371
27	go	8	7	1	1	367
28	go	6	7	1	1	343
29	go	8	4	1	1	330
30	go	2	13	1	1	348
31	go	9	7	1	1	360
32	go	8	7	1	1	353
33	go	9	10	1	1	335
34	go	5	7	1	1	324
35	go	2	13	1	1	348
36	go	4	16	1	1	361
37	nogo	3	13	0	1	n/a
38	go	5	16	1	1	348
39	go	5	10	1	1	324
40	go	6	16	1	1	342
41	nogo	3	13	1	0	305
42	go	2	16	1	1	326
43	go	7	7	1	1	333
44	go	5	10	1	1	338
45	go	7	16	1	1	325
46	go	8	7	1	1	355
47	go	2	13	1	1	336
48	go	7	10	1	1	340
49	go	4	13	1	1	359
50	go	1	7	1	1	307
51	nogo	3	4	1	0	318
52	go	7	7	1	1	377
53	go	4	10	1	1	347
54	go	6	16	1	1	386
55	go	4	4	1	1	400
56	go	8	16	1	1	347
57	go	8	16	1	1	385
58	go	4	4	1	1	377
59	go	1	13	1	1	321
60	go	9	7	1	1	342
61	go	9	10	1	1	354
62	go	4	4	1	1	356
63	go	8	10	1	1	330
64	go	2	16	1	1	369
65	go	2	10	1	1	360
66	go	8	13	1	1	364
67	go	7	13	1	1	357
68	nogo	3	7	0	1	n/a
69	go	4	7	1	1	349
70	go	7	4	1	1	313
71	go	1	13	1	1	281
72	go	4	10	1	1	304
73	nogo	3	16	1	0	239
74	go	5	7	1	1	324
75	go	9	7	1	1	348
76	go	8	16	1	1	304
77	go	4	16	1	1	331
78	go	7	16	1	1	315
79	go	4	7	1	1	323
80	go	1	13	1	1	308
81	go	2	7	1	1	410
82	go	6	16	1	1	290
83	go	6	10	1	1	301
84	go	4	10	1	1	306
85	go	6	10	1	1	336
86	go	6	13	1	1	327
87	go	9	4	1	1	365
88	go	9	4	1	1	342
89	go	7	7	1	1	331
90	go	6	4	1	1	336
91	go	4	4	1	1	345
92	go	1	7	1	1	326
93	go	7	10	1	1	324
94	nogo	3	13	0	1	n/a
95	nogo	3	4	0	1	n/a
96	go	9	7	1	1	370
97	go	8	7	1	1	302
98	go	2	13	1	1	326
99	go	7	4	1	1	364
100	go	6	7	1	1	305
101	go	6	7	1	1	297
102	go	1	7	1	1	301
103	go	9	16	1	1	301
104	go	9	16	1	1	368
105	nogo	3	4	0	1	n/a
106	go	1	13	1	1	333
107	go	4	10	1	1	304
108	go	1	4	1	1	349
109	go	1	10	1	1	335
110	go	2	10	1	1	334
111	nogo	3	7	0	1	n/a
112	go	6	13	1	1	315
113	go	8	10	1	1	318
114	go	5	4	1	1	405
115	go	9	4	1	1	352
116	nogo	3	7	1	0	356
117	go	9	10	1	1	378
118	go	5	10	1	1	318
119	go	5	10	1	1	312
120	go	4	10	1	1	313
121	go	2	4	1	1	316
122	go	6	13	1	1	340
123	go	8	16	1	1	509
124	nogo	3	4	0	1	n/a
125	go	8	10	1	1	347
126	go	4	16	1	1	340
127	go	4	4	1	1	328
128	go	2	10	1	1	306
129	go	5	4	1	1	265
130	go	2	4	1	1	337
131	go	1	4	1	1	353
132	go	1	13	1	1	316
133	go	5	4	1	1	314
134	go	9	7	1	1	329
135	go	5	10	1	1	370
136	go	4	16	1	1	313
137	go	5	16	1	1	347
138	nogo	3	13	1	0	303
139	go	4	4	1	1	271
140	go	2	7	1	1	263
141	go	5	13	1	1	254
142	go	6	16	1	1	271
143	go	9	10	1	1	392
144	go	4	4	1	1	327
145	go	6	4	1	1	332
146	nogo	3	13	1	0	324
147	go	1	13	1	1	339
148	go	5	16	1	1	309
149	go	5	4	1	1	324
150	go	4	16	1	1	317
151	go	6	7	1	1	301
152	go	4	13	1	1	236
153	go	5	16	1	1	304
154	go	5	13	1	1	350
155	go	6	16	1	1	348
156	go	2	13	1	1	296
157	nogo	3	7	1	0	332
158	go	8	4	1	1	324
159	nogo	3	10	1	0	282
160	go	1	16	1	1	214
161	go	9	16	1	1	313
162	nogo	3	13	0	1	n/a
163	go	2	16	1	1	308
164	go	7	10	1	1	387
165	go	6	13	1	1	306
166	go	6	16	1	1	339
167	go	2	10	1	1	366
168	go	2	4	1	1	357
169	go	8	16	1	1	487
170	go	8	7	1	1	404
171	go	6	16	1	1	363
172	nogo	3	7	0	1	n/a
173	go	2	16	1	1	307
174	go	1	4	1	1	326
175	go	6	16	1	1	310
176	go	1	13	1	1	358
177	nogo	3	10	1	0	336
178	go	1	10	1	1	254
179	go	7	10	1	1	350
180	go	2	7	1	1	324
181	go	9	4	1	1	312
182	go	9	13	1	1	332
183	go	8	10	1	1	421
184	go	7	13	1	1	335
185	go	2	16	1	1	360
186	go	7	10	1	1	376
187	go	9	7	1	1	391
188	go	7	16	1	1	325
189	go	1	10	1	1	364
190	go	4	16	1	1	334
191	go	8	16	1	1	326
192	go	5	13	1	1	409
193	go	9	13	1	1	379
194	go	5	7	1	1	394
195	go	6	13	1	1	341
196	go	9	10	1	1	373
197	nogo	3	16	1	0	352
198	go	9	10	1	1	300
199	go	8	16	1	1	266
200	go	7	4	1	1	343
201	nogo	3	7	1	0	314
202	go	4	13	1	1	298
203	nogo	3	16	1	0	281
204	go	1	13	1	1	301
205	go	6	16	1	1	305
206	go	5	13	1	1	301
207	go	9	4	1	1	381
208	go	2	10	1	1	318
209	go	7	10	1	1	310
210	go	7	7	1	1	367
211	go	1	16	1	1	357
212	go	8	10	1	1	440
213	go	7	4	1	1	353
214	go	1	4	1	1	380
215	go	7	7	1	1	352
216	nogo	3	10	0	1	n/a
217	nogo	3	13	1	0	322
218	go	2	13	1	1	365
219	go	2	7	1	1	344
220	go	7	4	1	1	358
221	go	5	7	1	1	301
222	nogo	3	4	1	0	307
223	go	7	10	1	1	327
224	go	8	13	1	1	323
225	go	9	13	1	1	367
