trial	trial_type	stimulus	fontsize	response	accuracy	reactiontime
1	go	1	4	1	1	649
2	go	4	10	1	1	390
3	go	1	10	1	1	326
4	go	1	10	1	1	364
5	go	5	4	1	1	415
6	go	1	10	1	1	349
7	go	8	10	1	1	386
8	go	6	13	1	1	436
9	go	5	4	1	1	452
10	go	7	10	1	1	409
11	go	7	7	1	1	379
12	go	9	7	1	1	464
13	go	2	7	1	1	426
14	nogo	3	16	0	1	n/a
15	go	8	4	1	1	482
16	go	5	4	1	1	450
17	go	5	7	1	1	396
18	go	6	16	1	1	388
19	go	1	16	1	1	426
20	go	8	16	1	1	537
21	go	9	4	1	1	480
22	go	8	10	1	1	393
23	go	2	16	1	1	396
24	go	7	13	1	1	467
25	go	6	16	1	1	663
26	go	4	16	1	1	566
27	go	8	7	1	1	527
28	go	6	13	1	1	450
29	go	8	13	1	1	374
30	go	2	4	1	1	411
31	go	9	4	1	1	535
32	go	8	10	1	1	529
33	go	9	13	1	1	498
34	go	5	7	1	1	433
35	go	2	4	1	1	450
36	go	4	4	1	1	463
37	nogo	3	10	0	1	n/a
38	go	5	16	1	1	442
39	go	5	4	1	1	408
40	go	6	10	1	1	430
41	nogo	3	10	0	1	n/a
42	go	2	10	1	1	334
43	go	7	7	1	1	390
44	go	5	10	1	1	408
45	go	7	4	1	1	424
46	go	8	7	1	1	462
47	go	2	7	1	1	501
48	go	7	16	1	1	536
49	go	4	16	1	1	474
50	go	1	16	1	1	430
51	nogo	3	7	1	0	424
52	go	7	16	1	1	545
53	go	4	7	1	1	651
54	go	6	10	1	1	712
55	go	4	4	1	1	730
56	go	8	4	1	1	680
57	go	8	10	1	1	738
58	go	4	7	1	1	821
59	go	1	16	1	1	768
60	go	9	4	1	1	877
61	go	9	16	0	0	n/a
62	go	4	4	1	1	391
63	go	8	16	1	1	519
64	go	2	13	1	1	450
65	go	2	13	1	1	463
66	go	8	16	1	1	508
67	go	7	4	1	1	686
68	nogo	3	10	0	1	n/a
69	go	4	13	1	1	384
70	go	7	13	1	1	463
71	go	1	10	1	1	433
72	go	4	7	1	1	426
73	nogo	3	7	1	0	464
74	go	5	13	1	1	874
75	go	9	16	0	0	n/a
76	go	8	10	1	1	342
77	go	4	13	1	1	450
78	go	7	13	1	1	712
79	go	4	13	0	0	n/a
80	go	1	16	1	1	388
81	go	2	16	1	1	538
82	go	6	10	1	1	670
83	go	6	16	0	0	n/a
84	go	4	7	1	1	305
85	go	6	16	1	1	536
86	go	6	16	1	1	737
87	go	9	7	0	0	n/a
88	go	9	7	1	1	297
89	go	7	7	1	1	468
90	go	6	10	1	1	462
91	go	4	13	1	1	441
92	go	1	7	1	1	445
93	go	7	7	1	1	450
94	nogo	3	16	1	0	440
95	nogo	3	16	0	1	n/a
96	go	9	10	1	1	501
97	go	8	13	1	1	561
98	go	2	4	1	1	685
99	go	7	7	1	1	680
100	go	6	7	1	1	829
101	go	6	7	0	0	n/a
102	go	1	13	1	1	371
103	go	9	4	1	1	654
104	go	9	7	0	0	n/a
105	nogo	3	4	1	0	331
106	go	1	10	1	1	727
107	go	4	7	0	0	n/a
108	go	1	16	1	1	338
109	go	1	13	1	1	718
110	go	2	13	0	0	n/a
111	nogo	3	13	1	0	254
112	go	6	13	1	1	795
113	go	8	13	1	1	880
114	go	5	16	0	0	n/a
115	go	9	7	1	1	280
116	nogo	3	13	0	1	n/a
117	go	9	4	1	1	382
118	go	5	10	1	1	678
119	go	5	16	0	0	n/a
120	go	4	10	1	1	365
121	go	2	13	1	1	751
122	go	6	7	1	1	745
123	go	8	10	1	1	804
124	nogo	3	10	0	1	n/a
125	go	8	7	1	1	415
126	go	4	16	1	1	389
127	go	4	4	0	0	n/a
128	go	2	16	1	1	424
129	go	5	13	1	1	552
130	go	2	16	0	0	n/a
131	go	1	13	1	1	80
132	go	1	4	1	1	360
133	go	5	16	1	1	457
134	go	9	16	1	1	437
135	go	5	7	1	1	558
136	go	4	10	1	1	690
137	go	5	10	0	0	n/a
138	nogo	3	4	1	0	321
139	go	4	13	1	1	743
140	go	2	16	1	1	711
141	go	5	4	0	0	n/a
142	go	6	4	1	1	60
143	go	9	13	1	1	538
144	go	4	4	1	1	695
145	go	6	10	1	1	708
146	nogo	3	4	0	1	n/a
147	go	1	13	1	1	451
148	go	5	7	1	1	489
149	go	5	7	1	1	481
150	go	4	13	1	1	654
151	go	6	4	0	0	n/a
152	go	4	13	1	1	354
153	go	5	4	1	1	503
154	go	5	10	1	1	494
155	go	6	13	1	1	689
156	go	2	13	1	1	778
157	nogo	3	16	0	1	n/a
158	go	8	13	1	1	456
159	nogo	3	7	0	1	n/a
160	go	1	16	1	1	538
161	go	9	13	1	1	685
162	nogo	3	10	0	1	n/a
163	go	2	7	1	1	372
164	go	7	4	1	1	461
165	go	6	10	1	1	689
166	go	6	10	0	0	n/a
167	go	2	13	1	1	382
168	go	2	4	0	0	n/a
169	go	8	16	1	1	287
170	go	8	7	1	1	484
171	go	6	13	1	1	707
172	nogo	3	13	0	1	n/a
173	go	2	16	1	1	427
174	go	1	7	1	1	714
175	go	6	4	1	1	728
176	go	1	4	1	1	946
177	nogo	3	13	0	1	n/a
178	go	1	4	1	1	430
179	go	7	7	1	1	754
180	go	2	13	1	1	769
181	go	9	13	1	1	694
182	go	9	10	0	0	n/a
183	go	8	16	1	1	347
184	go	7	10	1	1	515
185	go	2	4	1	1	670
186	go	7	13	1	1	729
187	go	9	7	1	1	790
188	go	7	7	0	0	n/a
189	go	1	10	1	1	294
190	go	4	7	1	1	391
191	go	8	7	1	1	563
192	go	5	7	1	1	630
193	go	9	7	1	1	690
194	go	5	4	1	1	771
195	go	6	4	1	1	765
196	go	9	7	0	0	n/a
197	nogo	3	4	1	0	278
198	go	9	16	1	1	860
199	go	8	16	0	0	n/a
200	go	7	10	1	1	356
201	nogo	3	13	0	1	n/a
202	go	4	10	1	1	380
203	nogo	3	4	0	1	n/a
204	go	1	4	1	1	377
205	go	6	16	1	1	583
206	go	5	10	1	1	687
207	go	9	4	1	1	658
208	go	2	7	1	1	673
209	go	7	13	1	1	738
210	go	7	10	0	0	n/a
211	go	1	13	1	1	400
212	go	8	4	1	1	593
213	go	7	10	1	1	585
214	go	1	10	0	0	n/a
215	go	7	10	1	1	344
216	nogo	3	10	1	0	405
217	nogo	3	16	0	1	n/a
218	go	2	10	1	1	429
219	go	2	4	1	1	760
220	go	7	16	1	1	910
221	go	5	13	0	0	n/a
222	nogo	3	7	0	1	n/a
223	go	7	16	1	1	313
224	go	8	16	1	1	477
225	go	9	4	1	1	446
