trial	trial_type	stimulus	fontsize	response	accuracy	reactiontime
1	go	1	16	1	1	589
2	go	4	13	1	1	323
3	go	1	7	1	1	278
4	go	1	16	1	1	267
5	go	5	4	1	1	245
6	go	1	13	1	1	356
7	go	8	10	1	1	329
8	go	6	16	1	1	319
9	go	5	4	1	1	333
10	go	7	7	1	1	348
11	go	7	13	1	1	317
12	go	9	13	1	1	332
13	go	2	13	1	1	417
14	nogo	3	10	1	0	301
15	go	8	4	1	1	369
16	go	5	10	1	1	324
17	go	5	13	1	1	526
18	go	6	7	1	1	459
19	go	1	7	1	1	563
20	go	8	13	1	1	396
21	go	9	10	1	1	401
22	go	8	13	1	1	468
23	go	2	7	1	1	324
24	go	7	7	1	1	356
25	go	6	10	1	1	320
26	go	4	7	1	1	416
27	go	8	10	1	1	397
28	go	6	13	1	1	547
29	go	8	4	1	1	398
30	go	2	13	1	1	314
31	go	9	16	1	1	272
32	go	8	13	1	1	325
33	go	9	7	1	1	385
34	go	5	4	1	1	446
35	go	2	10	1	1	349
36	go	4	4	1	1	425
37	nogo	3	7	0	1	n/a
38	go	5	10	1	1	186
39	go	5	16	1	1	229
40	go	6	16	1	1	305
41	nogo	3	13	1	0	304
42	go	2	7	1	1	278
43	go	7	10	1	1	356
44	go	5	7	1	1	308
45	go	7	16	1	1	303
46	go	8	7	1	1	317
47	go	2	4	1	1	303
48	go	7	10	1	1	257
49	go	4	16	1	1	277
50	go	1	4	1	1	429
51	nogo	3	16	1	0	305
52	go	7	4	1	1	199
53	go	4	7	1	1	324
54	go	6	4	1	1	348
55	go	4	7	1	1	246
56	go	8	16	1	1	292
57	go	8	7	1	1	314
58	go	4	10	1	1	309
59	go	1	16	1	1	325
60	go	9	4	1	1	280
61	go	9	16	1	1	331
62	go	4	10	1	1	336
63	go	8	4	1	1	263
64	go	2	16	1	1	352
65	go	2	7	1	1	411
66	go	8	10	1	1	379
67	go	7	13	1	1	395
68	nogo	3	16	1	0	279
69	go	4	4	1	1	212
70	go	7	7	0	0	n/a
71	go	1	16	1	1	296
72	go	4	4	1	1	351
73	nogo	3	4	1	0	337
74	go	5	13	1	1	406
75	go	9	7	1	1	305
76	go	8	4	1	1	339
77	go	4	13	1	1	377
78	go	7	16	1	1	439
79	go	4	13	1	1	263
80	go	1	10	1	1	383
81	go	2	4	1	1	318
82	go	6	13	1	1	428
83	go	6	4	1	1	372
84	go	4	7	1	1	268
85	go	6	13	1	1	262
86	go	6	10	1	1	141
87	go	9	4	1	1	355
88	go	9	16	1	1	374
89	go	7	13	1	1	391
90	go	6	4	1	1	490
91	go	4	13	1	1	442
92	go	1	13	1	1	424
93	go	7	13	1	1	409
94	nogo	3	7	0	1	n/a
95	nogo	3	10	1	0	218
96	go	9	7	1	1	376
97	go	8	13	1	1	313
98	go	2	10	1	1	402
99	go	7	10	1	1	274
100	go	6	7	1	1	453
101	go	6	16	1	1	331
102	go	1	7	1	1	429
103	go	9	7	1	1	436
104	go	9	10	1	1	390
105	nogo	3	13	0	1	n/a
106	go	1	4	1	1	393
107	go	4	7	1	1	320
108	go	1	10	1	1	332
109	go	1	10	1	1	415
110	go	2	10	1	1	362
111	nogo	3	16	0	1	n/a
112	go	6	13	1	1	59
113	go	8	4	1	1	421
114	go	5	10	1	1	350
115	go	9	7	1	1	319
116	nogo	3	10	0	1	n/a
117	go	9	13	1	1	280
118	go	5	13	1	1	317
119	go	5	13	1	1	276
120	go	4	16	1	1	344
121	go	2	13	1	1	296
122	go	6	4	1	1	437
123	go	8	4	1	1	310
124	nogo	3	10	1	0	332
125	go	8	10	1	1	330
126	go	4	4	1	1	380
127	go	4	16	1	1	824
128	go	2	7	1	1	505
129	go	5	16	1	1	415
130	go	2	10	1	1	305
131	go	1	13	1	1	387
132	go	1	13	1	1	356
133	go	5	10	1	1	376
134	go	9	4	1	1	348
135	go	5	16	1	1	352
136	go	4	10	1	1	324
137	go	5	7	1	1	336
138	nogo	3	16	0	1	n/a
139	go	4	4	1	1	219
140	go	2	16	1	1	281
141	go	5	4	1	1	252
142	go	6	13	1	1	312
143	go	9	10	1	1	328
144	go	4	7	1	1	301
145	go	6	10	1	1	293
146	nogo	3	7	1	0	281
147	go	1	16	1	1	336
148	go	5	7	1	1	318
149	go	5	7	1	1	77
150	go	4	4	1	1	377
151	go	6	13	1	1	453
152	go	4	16	1	1	405
153	go	5	4	1	1	791
154	go	5	16	1	1	380
155	go	6	10	1	1	358
156	go	2	10	1	1	299
157	nogo	3	10	1	0	298
158	go	8	10	1	1	301
159	nogo	3	7	1	0	293
160	go	1	13	1	1	375
161	go	9	16	1	1	418
162	nogo	3	10	0	1	n/a
163	go	2	16	1	1	251
164	go	7	16	1	1	385
165	go	6	16	1	1	426
166	go	6	16	1	1	443
167	go	2	4	1	1	660
168	go	2	13	1	1	720
169	go	8	16	1	1	368
170	go	8	4	1	1	672
171	go	6	4	1	1	590
172	nogo	3	10	0	1	n/a
173	go	2	4	1	1	372
174	go	1	13	1	1	586
175	go	6	16	1	1	483
176	go	1	16	1	1	665
177	nogo	3	16	0	1	n/a
178	go	1	13	1	1	330
179	go	7	16	1	1	672
180	go	2	7	1	1	732
181	go	9	16	1	1	791
182	go	9	16	1	1	717
183	go	8	16	1	1	732
184	go	7	7	1	1	656
185	go	2	4	1	1	769
186	go	7	10	1	1	721
187	go	9	7	1	1	763
188	go	7	4	1	1	782
189	go	1	13	1	1	793
190	go	4	10	0	0	n/a
191	go	8	4	0	0	n/a
192	go	5	13	1	1	422
193	go	9	4	1	1	321
194	go	5	10	1	1	277
195	go	6	4	1	1	431
196	go	9	16	1	1	667
197	nogo	3	13	0	1	n/a
198	go	9	13	1	1	390
199	go	8	4	1	1	641
200	go	7	7	1	1	645
201	nogo	3	13	0	1	n/a
202	go	4	7	1	1	635
203	nogo	3	16	0	1	n/a
204	go	1	4	1	1	612
205	go	6	16	1	1	698
206	go	5	13	1	1	692
207	go	9	10	1	1	620
208	go	2	10	1	1	709
209	go	7	7	1	1	771
210	go	7	4	1	1	673
211	go	1	13	1	1	687
212	go	8	7	1	1	611
213	go	7	13	1	1	717
214	go	1	4	1	1	732
215	go	7	10	1	1	776
216	nogo	3	10	0	1	n/a
217	nogo	3	7	0	1	n/a
218	go	2	7	1	1	468
219	go	2	7	1	1	374
220	go	7	10	1	1	630
221	go	5	4	1	1	585
222	nogo	3	16	0	1	n/a
223	go	7	7	1	1	626
224	go	8	4	1	1	693
225	go	9	7	1	1	737
