trial	trial_type	stimulus	fontsize	response	accuracy	reactiontime
1	go	1	7	1	1	707
2	go	4	7	1	1	629
3	go	1	13	1	1	554
4	go	1	4	1	1	434
5	go	5	13	1	1	348
6	go	1	16	1	1	348
7	go	8	16	1	1	317
8	go	6	10	1	1	292
9	go	5	16	1	1	326
10	go	7	13	1	1	244
11	go	7	16	1	1	317
12	go	9	16	1	1	318
13	go	2	4	1	1	277
14	nogo	3	13	1	0	256
15	go	8	4	1	1	450
16	go	5	13	1	1	373
17	go	5	10	1	1	305
18	go	6	10	1	1	347
19	go	1	4	1	1	327
20	go	8	4	1	1	321
21	go	9	4	1	1	224
22	go	8	16	1	1	194
23	go	2	13	1	1	304
24	go	7	16	1	1	335
25	go	6	7	1	1	304
26	go	4	10	1	1	281
27	go	8	7	1	1	323
28	go	6	10	1	1	304
29	go	8	13	1	1	301
30	go	2	13	1	1	306
31	go	9	16	1	1	311
32	go	8	4	1	1	382
33	go	9	16	1	1	375
34	go	5	7	1	1	457
35	go	2	4	1	1	371
36	go	4	13	1	1	318
37	nogo	3	10	0	1	n/a
38	go	5	16	1	1	412
39	go	5	7	1	1	331
40	go	6	13	1	1	304
41	nogo	3	10	1	0	300
42	go	2	4	1	1	315
43	go	7	16	1	1	282
44	go	5	16	1	1	304
45	go	7	13	1	1	298
46	go	8	10	1	1	390
47	go	2	13	1	1	393
48	go	7	7	1	1	313
49	go	4	7	1	1	262
50	go	1	4	1	1	393
51	nogo	3	7	1	0	385
52	go	7	13	1	1	513
53	go	4	7	1	1	452
54	go	6	13	1	1	442
55	go	4	7	1	1	453
56	go	8	16	1	1	326
57	go	8	7	1	1	436
58	go	4	4	1	1	566
59	go	1	10	1	1	534
60	go	9	10	1	1	571
61	go	9	13	1	1	384
62	go	4	10	1	1	556
63	go	8	4	1	1	367
64	go	2	16	1	1	497
65	go	2	4	1	1	466
66	go	8	4	1	1	457
67	go	7	13	1	1	428
68	nogo	3	7	0	1	n/a
69	go	4	4	1	1	409
70	go	7	4	1	1	525
71	go	1	4	1	1	495
72	go	4	10	1	1	421
73	nogo	3	4	1	0	365
74	go	5	16	1	1	450
75	go	9	4	1	1	407
76	go	8	16	1	1	424
77	go	4	13	1	1	415
78	go	7	7	1	1	441
79	go	4	16	1	1	377
80	go	1	7	1	1	393
81	go	2	10	1	1	374
82	go	6	16	1	1	322
83	go	6	16	1	1	309
84	go	4	4	1	1	339
85	go	6	10	1	1	332
86	go	6	10	1	1	308
87	go	9	7	1	1	419
88	go	9	10	1	1	390
89	go	7	7	1	1	325
90	go	6	7	1	1	363
91	go	4	7	1	1	446
92	go	1	13	1	1	489
93	go	7	10	1	1	403
94	nogo	3	4	0	1	n/a
95	nogo	3	7	0	1	n/a
96	go	9	16	1	1	420
97	go	8	4	1	1	503
98	go	2	10	1	1	424
99	go	7	16	1	1	409
100	go	6	4	1	1	457
101	go	6	10	1	1	469
102	go	1	13	1	1	578
103	go	9	10	1	1	615
104	go	9	16	1	1	652
105	nogo	3	4	0	1	n/a
106	go	1	13	1	1	576
107	go	4	7	1	1	703
108	go	1	13	1	1	674
109	go	1	16	1	1	644
110	go	2	16	1	1	748
111	nogo	3	7	0	1	n/a
112	go	6	16	1	1	738
113	go	8	10	1	1	732
114	go	5	4	1	1	746
115	go	9	10	1	1	739
116	nogo	3	13	0	1	n/a
117	go	9	7	1	1	706
118	go	5	7	1	1	724
119	go	5	16	1	1	646
120	go	4	4	1	1	566
121	go	2	7	1	1	637
122	go	6	10	1	1	653
123	go	8	13	1	1	644
124	nogo	3	13	0	1	n/a
125	go	8	16	1	1	470
126	go	4	16	1	1	561
127	go	4	4	1	1	571
128	go	2	16	1	1	547
129	go	5	4	1	1	465
130	go	2	7	1	1	478
131	go	1	16	1	1	515
132	go	1	13	1	1	673
133	go	5	16	1	1	690
134	go	9	4	1	1	702
135	go	5	13	1	1	743
136	go	4	10	1	1	711
137	go	5	7	1	1	703
138	nogo	3	7	0	1	n/a
139	go	4	10	1	1	674
140	go	2	10	1	1	686
141	go	5	4	1	1	746
142	go	6	16	1	1	806
143	go	9	7	1	1	755
144	go	4	7	1	1	724
145	go	6	7	1	1	672
146	nogo	3	16	0	1	n/a
147	go	1	10	1	1	775
148	go	5	7	1	1	729
149	go	5	7	1	1	676
150	go	4	4	1	1	690
151	go	6	13	1	1	662
152	go	4	10	1	1	631
153	go	5	16	1	1	713
154	go	5	13	1	1	660
155	go	6	7	1	1	636
156	go	2	4	1	1	628
157	nogo	3	10	0	1	n/a
158	go	8	13	1	1	552
159	nogo	3	4	0	1	n/a
160	go	1	10	1	1	678
161	go	9	7	1	1	647
162	nogo	3	16	0	1	n/a
163	go	2	4	1	1	729
164	go	7	16	1	1	676
165	go	6	13	1	1	547
166	go	6	7	1	1	495
167	go	2	13	1	1	542
168	go	2	16	1	1	456
169	go	8	7	1	1	551
170	go	8	13	1	1	464
171	go	6	10	1	1	386
172	nogo	3	13	1	0	402
173	go	2	13	1	1	487
174	go	1	16	1	1	365
175	go	6	13	1	1	527
176	go	1	13	1	1	487
177	nogo	3	13	1	0	534
178	go	1	7	1	1	548
179	go	7	10	1	1	508
180	go	2	4	1	1	433
181	go	9	13	1	1	379
182	go	9	16	1	1	336
183	go	8	4	1	1	350
184	go	7	10	1	1	304
185	go	2	13	1	1	326
186	go	7	10	1	1	581
187	go	9	16	1	1	471
188	go	7	7	1	1	349
189	go	1	13	1	1	399
190	go	4	16	1	1	379
191	go	8	13	1	1	473
192	go	5	13	1	1	341
193	go	9	7	1	1	379
194	go	5	16	1	1	487
195	go	6	16	1	1	645
196	go	9	10	1	1	638
197	nogo	3	4	0	1	n/a
198	go	9	10	1	1	518
199	go	8	7	1	1	646
200	go	7	10	1	1	658
201	nogo	3	7	0	1	n/a
202	go	4	13	1	1	576
203	nogo	3	13	0	1	n/a
204	go	1	7	1	1	527
205	go	6	4	1	1	655
206	go	5	4	1	1	650
207	go	9	4	1	1	713
208	go	2	4	1	1	728
209	go	7	10	1	1	788
210	go	7	10	1	1	737
211	go	1	13	1	1	796
212	go	8	4	1	1	744
213	go	7	4	1	1	709
214	go	1	7	1	1	686
215	go	7	4	1	1	699
216	nogo	3	16	0	1	n/a
217	nogo	3	10	0	1	n/a
218	go	2	10	1	1	615
219	go	2	10	1	1	628
220	go	7	10	1	1	645
221	go	5	7	1	1	661
222	nogo	3	4	0	1	n/a
223	go	7	10	1	1	583
224	go	8	16	1	1	505
225	go	9	10	1	1	475
