trial	trial_type	stimulus	fontsize	response	accuracy	reactiontime
1	go	1	16	0	0	n/a
2	go	4	10	1	1	387
3	go	1	13	1	1	203
4	go	1	7	1	1	236
5	go	5	16	1	1	339
6	go	1	10	1	1	368
7	go	8	4	1	1	454
8	go	6	10	1	1	449
9	go	5	13	1	1	805
10	go	7	16	1	1	331
11	go	7	13	1	1	228
12	go	9	13	1	1	55
13	go	2	16	1	1	280
14	nogo	3	7	1	0	379
15	go	8	13	1	1	568
16	go	5	10	1	1	271
17	go	5	16	1	1	173
18	go	6	16	1	1	434
19	go	1	7	1	1	281
20	go	8	10	1	1	372
21	go	9	4	1	1	462
22	go	8	10	0	0	n/a
23	go	2	4	1	1	544
24	go	7	10	1	1	425
25	go	6	7	1	1	308
26	go	4	16	1	1	495
27	go	8	4	1	1	483
28	go	6	7	1	1	439
29	go	8	13	1	1	634
30	go	2	16	1	1	393
31	go	9	16	1	1	468
32	go	8	13	1	1	420
33	go	9	4	1	1	406
34	go	5	4	1	1	332
35	go	2	16	1	1	334
36	go	4	13	1	1	424
37	nogo	3	10	1	0	327
38	go	5	10	1	1	387
39	go	5	4	1	1	219
40	go	6	4	1	1	318
41	nogo	3	13	1	0	116
42	go	2	10	1	1	567
43	go	7	13	1	1	316
44	go	5	7	1	1	282
45	go	7	13	1	1	42
46	go	8	16	1	1	265
47	go	2	13	1	1	296
48	go	7	13	1	1	256
49	go	4	16	1	1	232
50	go	1	4	1	1	255
51	nogo	3	7	1	0	306
52	go	7	13	1	1	367
53	go	4	7	1	1	358
54	go	6	4	1	1	249
55	go	4	16	1	1	249
56	go	8	16	1	1	224
57	go	8	10	1	1	264
58	go	4	13	1	1	301
59	go	1	10	1	1	794
60	go	9	16	1	1	477
61	go	9	10	1	1	857
62	go	4	13	1	1	334
63	go	8	10	0	0	n/a
64	go	2	4	1	1	161
65	go	2	7	1	1	16
66	go	8	16	1	1	628
67	go	7	10	1	1	350
68	nogo	3	13	1	0	360
69	go	4	7	1	1	381
70	go	7	13	1	1	1117
71	go	1	7	1	1	613
72	go	4	13	1	1	358
73	nogo	3	4	1	0	277
74	go	5	4	1	1	305
75	go	9	16	0	0	n/a
76	go	8	13	1	1	269
77	go	4	7	1	1	297
78	go	7	4	1	1	387
79	go	4	13	1	1	318
80	go	1	4	1	1	636
81	go	2	16	1	1	366
82	go	6	7	1	1	267
83	go	6	7	1	1	282
84	go	4	7	1	1	335
85	go	6	13	1	1	329
86	go	6	16	1	1	280
87	go	9	13	1	1	225
88	go	9	10	1	1	304
89	go	7	10	1	1	141
90	go	6	13	1	1	336
91	go	4	10	1	1	397
92	go	1	16	1	1	321
93	go	7	7	1	1	359
94	nogo	3	10	0	1	n/a
95	nogo	3	7	1	0	348
96	go	9	10	1	1	506
97	go	8	13	1	1	363
98	go	2	7	1	1	644
99	go	7	7	0	0	n/a
100	go	6	4	0	0	n/a
101	go	6	10	1	1	57
102	go	1	10	1	1	242
103	go	9	10	1	1	258
104	go	9	10	1	1	728
105	nogo	3	10	0	1	n/a
106	go	1	13	0	0	n/a
107	go	4	10	1	1	881
108	go	1	16	1	1	389
109	go	1	7	1	1	331
110	go	2	16	0	0	n/a
111	nogo	3	4	0	1	n/a
112	go	6	7	1	1	974
113	go	8	13	0	0	n/a
114	go	5	13	1	1	361
115	go	9	4	1	1	296
116	nogo	3	10	1	0	48
117	go	9	10	1	1	130
118	go	5	10	1	1	214
119	go	5	7	1	1	48
120	go	4	4	1	1	130
121	go	2	13	1	1	32
122	go	6	4	1	1	229
123	go	8	4	1	1	396
124	nogo	3	13	0	1	n/a
125	go	8	7	1	1	14
126	go	4	10	1	1	335
127	go	4	10	1	1	451
128	go	2	4	1	1	595
129	go	5	4	1	1	342
130	go	2	10	1	1	970
131	go	1	16	0	0	n/a
132	go	1	4	1	1	577
133	go	5	13	1	1	295
134	go	9	7	1	1	312
135	go	5	16	1	1	662
136	go	4	4	1	1	541
137	go	5	4	1	1	428
138	nogo	3	4	1	0	115
139	go	4	4	1	1	176
140	go	2	10	1	1	296
141	go	5	10	1	1	290
142	go	6	7	1	1	304
143	go	9	16	1	1	270
144	go	4	7	1	1	216
145	go	6	7	1	1	316
146	nogo	3	4	1	0	353
147	go	1	16	1	1	323
148	go	5	16	1	1	338
149	go	5	4	1	1	308
150	go	4	7	1	1	239
151	go	6	16	1	1	227
152	go	4	10	1	1	309
153	go	5	4	1	1	695
154	go	5	16	1	1	439
155	go	6	10	0	0	n/a
156	go	2	16	1	1	58
157	nogo	3	7	0	1	n/a
158	go	8	16	1	1	355
159	nogo	3	10	0	1	n/a
160	go	1	7	1	1	620
161	go	9	4	1	1	474
162	nogo	3	16	1	0	426
163	go	2	7	1	1	556
164	go	7	16	0	0	n/a
165	go	6	13	0	0	n/a
166	go	6	13	1	1	326
167	go	2	16	1	1	427
168	go	2	13	1	1	500
169	go	8	10	1	1	515
170	go	8	7	1	1	394
171	go	6	4	1	1	388
172	nogo	3	4	0	1	n/a
173	go	2	7	1	1	653
174	go	1	4	1	1	556
175	go	6	16	1	1	571
176	go	1	13	1	1	268
177	nogo	3	10	0	1	n/a
178	go	1	7	1	1	410
179	go	7	7	1	1	435
180	go	2	10	1	1	394
181	go	9	10	1	1	420
182	go	9	4	1	1	463
183	go	8	4	1	1	394
184	go	7	13	1	1	427
185	go	2	4	1	1	465
186	go	7	7	1	1	693
187	go	9	7	1	1	380
188	go	7	10	1	1	327
189	go	1	13	0	0	n/a
190	go	4	16	1	1	555
191	go	8	4	1	1	523
192	go	5	7	1	1	498
193	go	9	16	1	1	306
194	go	5	7	1	1	324
195	go	6	13	1	1	429
196	go	9	16	1	1	1117
197	nogo	3	16	1	0	768
198	go	9	13	1	1	216
199	go	8	10	1	1	392
200	go	7	13	1	1	464
201	nogo	3	4	0	1	n/a
202	go	4	4	1	1	220
203	nogo	3	10	1	0	245
204	go	1	7	1	1	327
205	go	6	13	1	1	406
206	go	5	10	1	1	316
207	go	9	4	1	1	368
208	go	2	4	1	1	404
209	go	7	13	1	1	342
210	go	7	7	1	1	588
211	go	1	7	1	1	424
212	go	8	16	1	1	433
213	go	7	16	1	1	632
214	go	1	7	1	1	369
215	go	7	13	1	1	344
216	nogo	3	13	1	0	408
217	nogo	3	16	1	0	354
218	go	2	4	1	1	308
219	go	2	16	1	1	316
220	go	7	7	1	1	658
221	go	5	16	1	1	718
222	nogo	3	16	1	0	467
223	go	7	7	1	1	484
224	go	8	4	1	1	249
225	go	9	13	1	1	278
