trial	trial_type	stimulus	fontsize	response	accuracy	reactiontime
1	go	1	4	0	0	n/a
2	go	4	13	1	1	508
3	go	1	4	1	1	455
4	go	1	4	1	1	472
5	go	5	7	1	1	434
6	go	1	13	1	1	313
7	go	8	13	1	1	306
8	go	6	4	1	1	309
9	go	5	10	1	1	383
10	go	7	16	1	1	380
11	go	7	13	1	1	321
12	go	9	7	1	1	306
13	go	2	13	1	1	251
14	nogo	3	10	1	0	349
15	go	8	13	1	1	342
16	go	5	4	1	1	518
17	go	5	7	1	1	372
18	go	6	16	1	1	320
19	go	1	10	1	1	274
20	go	8	16	1	1	294
21	go	9	7	1	1	332
22	go	8	7	1	1	335
23	go	2	4	1	1	372
24	go	7	7	1	1	365
25	go	6	4	1	1	447
26	go	4	4	1	1	326
27	go	8	13	1	1	297
28	go	6	7	1	1	276
29	go	8	10	1	1	251
30	go	2	13	1	1	263
31	go	9	16	1	1	295
32	go	8	10	1	1	307
33	go	9	7	1	1	307
34	go	5	7	1	1	362
35	go	2	10	1	1	367
36	go	4	16	1	1	343
37	nogo	3	4	0	1	n/a
38	go	5	16	1	1	676
39	go	5	4	1	1	293
40	go	6	10	1	1	326
41	nogo	3	16	1	0	316
42	go	2	10	1	1	270
43	go	7	4	1	1	268
44	go	5	16	1	1	319
45	go	7	10	1	1	272
46	go	8	10	1	1	212
47	go	2	10	1	1	205
48	go	7	7	1	1	478
49	go	4	10	1	1	385
50	go	1	16	1	1	291
51	nogo	3	4	1	0	320
52	go	7	4	1	1	270
53	go	4	7	1	1	234
54	go	6	13	1	1	225
55	go	4	4	1	1	171
56	go	8	4	1	1	194
57	go	8	7	1	1	364
58	go	4	4	1	1	137
59	go	1	4	1	1	418
60	go	9	10	1	1	302
61	go	9	7	1	1	306
62	go	4	4	1	1	323
63	go	8	16	1	1	373
64	go	2	7	1	1	224
65	go	2	16	1	1	297
66	go	8	7	1	1	307
67	go	7	7	1	1	290
68	nogo	3	13	1	0	222
69	go	4	13	1	1	123
70	go	7	7	1	1	185
71	go	1	4	1	1	200
72	go	4	13	1	1	242
73	nogo	3	16	1	0	259
74	go	5	7	1	1	707
75	go	9	10	1	1	480
76	go	8	16	1	1	270
77	go	4	10	1	1	246
78	go	7	13	1	1	232
79	go	4	10	1	1	156
80	go	1	16	1	1	126
81	go	2	10	1	1	165
82	go	6	4	1	1	225
83	go	6	4	1	1	306
84	go	4	10	1	1	375
85	go	6	16	1	1	208
86	go	6	13	1	1	249
87	go	9	13	1	1	218
88	go	9	13	1	1	278
89	go	7	13	1	1	223
90	go	6	7	1	1	169
91	go	4	13	1	1	139
92	go	1	16	1	1	131
93	go	7	10	1	1	215
94	nogo	3	16	1	0	161
95	nogo	3	4	1	0	200
96	go	9	4	1	1	564
97	go	8	4	1	1	328
98	go	2	7	1	1	273
99	go	7	10	1	1	215
100	go	6	7	1	1	237
101	go	6	16	1	1	228
102	go	1	7	1	1	215
103	go	9	7	1	1	185
104	go	9	16	1	1	153
105	nogo	3	16	1	0	151
106	go	1	16	1	1	219
107	go	4	10	1	1	142
108	go	1	7	1	1	180
109	go	1	16	1	1	202
110	go	2	4	1	1	154
111	nogo	3	16	1	0	251
112	go	6	4	1	1	491
113	go	8	10	1	1	345
114	go	5	7	1	1	599
115	go	9	10	1	1	207
116	nogo	3	7	0	1	n/a
117	go	9	13	1	1	227
118	go	5	16	1	1	130
119	go	5	13	1	1	239
120	go	4	7	1	1	315
121	go	2	4	1	1	647
122	go	6	7	1	1	426
123	go	8	13	1	1	396
124	nogo	3	4	0	1	n/a
125	go	8	4	1	1	784
126	go	4	4	1	1	318
127	go	4	10	1	1	340
128	go	2	4	1	1	300
129	go	5	16	1	1	357
130	go	2	10	1	1	338
131	go	1	7	1	1	466
132	go	1	10	1	1	345
133	go	5	13	1	1	405
134	go	9	4	1	1	374
135	go	5	16	1	1	318
136	go	4	16	1	1	445
137	go	5	13	1	1	417
138	nogo	3	7	1	0	328
139	go	4	10	1	1	422
140	go	2	13	1	1	392
141	go	5	13	1	1	346
142	go	6	16	1	1	272
143	go	9	13	1	1	197
144	go	4	7	1	1	262
145	go	6	7	1	1	328
146	nogo	3	13	1	0	251
147	go	1	13	1	1	229
148	go	5	13	1	1	261
149	go	5	10	1	1	259
150	go	4	7	1	1	324
151	go	6	16	1	1	296
152	go	4	10	1	1	316
153	go	5	10	1	1	251
154	go	5	16	1	1	265
155	go	6	16	1	1	192
156	go	2	4	1	1	160
157	nogo	3	13	1	0	244
158	go	8	13	1	1	259
159	nogo	3	10	1	0	352
160	go	1	16	1	1	524
161	go	9	10	1	1	346
162	nogo	3	10	1	0	235
163	go	2	16	1	1	247
164	go	7	13	1	1	145
165	go	6	7	1	1	69
166	go	6	7	1	1	17
167	go	2	13	1	1	122
168	go	2	7	1	1	160
169	go	8	13	1	1	154
170	go	8	16	1	1	216
171	go	6	13	1	1	234
172	nogo	3	7	1	0	304
173	go	2	13	1	1	263
174	go	1	13	1	1	255
175	go	6	7	1	1	174
176	go	1	7	1	1	293
177	nogo	3	16	1	0	263
178	go	1	4	1	1	73
179	go	7	7	1	1	259
180	go	2	4	1	1	312
181	go	9	10	1	1	311
182	go	9	10	1	1	409
183	go	8	10	1	1	379
184	go	7	4	1	1	372
185	go	2	10	1	1	219
186	go	7	16	1	1	217
187	go	9	13	1	1	188
188	go	7	10	1	1	65
189	go	1	4	1	1	109
190	go	4	4	1	1	124
191	go	8	13	1	1	511
192	go	5	4	1	1	504
193	go	9	7	1	1	406
194	go	5	4	1	1	388
195	go	6	10	1	1	392
196	go	9	4	1	1	429
197	nogo	3	16	1	0	264
198	go	9	16	1	1	236
199	go	8	13	1	1	314
200	go	7	10	1	1	243
201	nogo	3	16	1	0	313
202	go	4	16	1	1	424
203	nogo	3	13	1	0	347
204	go	1	7	1	1	837
205	go	6	16	1	1	446
206	go	5	13	1	1	303
207	go	9	4	1	1	266
208	go	2	10	1	1	288
209	go	7	10	1	1	455
210	go	7	7	1	1	316
211	go	1	13	1	1	288
212	go	8	7	1	1	394
213	go	7	16	1	1	265
214	go	1	7	1	1	301
215	go	7	10	1	1	134
216	nogo	3	16	0	1	n/a
217	nogo	3	16	0	1	n/a
218	go	2	4	1	1	704
219	go	2	13	1	1	314
220	go	7	10	1	1	269
221	go	5	4	1	1	259
222	nogo	3	13	1	0	291
223	go	7	16	1	1	265
224	go	8	10	1	1	316
225	go	9	4	1	1	275
