participant_id	group	session	instOrdr	instSctn	itmOrdr	inst	itemID	response	score	position	responseTime	type
5051	1	post	1	2	2	NIH_Toolbox_List_Sorting_Working_Memory_Test_Age_7+_v2.1	LS1LAP1	1	1	1	0	practice
5051	1	post	1	2	4	NIH_Toolbox_List_Sorting_Working_Memory_Test_Age_7+_v2.1	LS1LAP2	1	1	2	0	practice
5051	1	post	1	4	1	NIH_Toolbox_List_Sorting_Working_Memory_Test_Age_7+_v2.1	WMLS1L3T1	1	4	3	0	main
5051	1	post	1	4	5	NIH_Toolbox_List_Sorting_Working_Memory_Test_Age_7+_v2.1	WMLS1L4T2	1	2	4	0	main
5051	1	post	1	4	7	NIH_Toolbox_List_Sorting_Working_Memory_Test_Age_7+_v2.1	WMLS1L5T2	1	2	5	0	main
5051	1	post	1	4	9	NIH_Toolbox_List_Sorting_Working_Memory_Test_Age_7+_v2.1	WMLS1L6T3	1	2	6	0	main
5051	1	post	1	4	11	NIH_Toolbox_List_Sorting_Working_Memory_Test_Age_7+_v2.1	WMLS1L7T1	2	0	7	0	main
5051	1	post	1	4	12	NIH_Toolbox_List_Sorting_Working_Memory_Test_Age_7+_v2.1	WMLS1L7T2	2	0	8	0	main
5051	1	post	1	5	2	NIH_Toolbox_List_Sorting_Working_Memory_Test_Age_7+_v2.1	LS2LAP1	1	1	9	0	practice
5051	1	post	1	5	4	NIH_Toolbox_List_Sorting_Working_Memory_Test_Age_7+_v2.1	LS2LAP2	1	1	10	0	practice
5051	1	post	1	7	1	NIH_Toolbox_List_Sorting_Working_Memory_Test_Age_7+_v2.1	WMLS2L03A	1	2	11	0	main
5051	1	post	1	7	3	NIH_Toolbox_List_Sorting_Working_Memory_Test_Age_7+_v2.1	WMLS2L04T2	1	2	12	0	main
5051	1	post	1	7	5	NIH_Toolbox_List_Sorting_Working_Memory_Test_Age_7+_v2.1	WMLS2L05T3	1	2	13	0	main
5051	1	post	1	7	7	NIH_Toolbox_List_Sorting_Working_Memory_Test_Age_7+_v2.1	WMLS2L04A	2	0	14	0	main
5051	1	post	1	7	8	NIH_Toolbox_List_Sorting_Working_Memory_Test_Age_7+_v2.1	WMLS2L06T3	1	1	15	0	main
5051	1	post	1	7	9	NIH_Toolbox_List_Sorting_Working_Memory_Test_Age_7+_v2.1	WMLS2L07T3	2	0	16	0	main
5051	1	post	1	7	10	NIH_Toolbox_List_Sorting_Working_Memory_Test_Age_7+_v2.1	WMLS2L07T1	2	0	17	0	main
5051	1	post	2	1	1	NIH_Toolbox_Pattern_Comparison_Processing_Speed_Test_Age_7+_Practice_v2.1	PSPAC_INSTR	n/a	n/a	n/a	n/a	instruction
5051	1	post	2	3	1	NIH_Toolbox_Pattern_Comparison_Processing_Speed_Test_Age_7+_Practice_v2.1	PSPAC_INTRO_INSTR	-1	n/a	1	n/a	instruction
5051	1	post	2	4	1	NIH_Toolbox_Pattern_Comparison_Processing_Speed_Test_Age_7+_Practice_v2.1	PSPACPA1	1	1	2	n/a	practice
5051	1	post	2	4	2	NIH_Toolbox_Pattern_Comparison_Processing_Speed_Test_Age_7+_Practice_v2.1	PSPACPA2	2	1	3	n/a	practice
5051	1	post	2	5	1	NIH_Toolbox_Pattern_Comparison_Processing_Speed_Test_Age_7+_Practice_v2.1	PSPACPA3	2	1	4	n/a	practice
5051	1	post	2	6	1	NIH_Toolbox_Pattern_Comparison_Processing_Speed_Test_Age_7+_Practice_v2.1	PSPACPA4	1	1	5	n/a	practice
5051	1	post	2	6	2	NIH_Toolbox_Pattern_Comparison_Processing_Speed_Test_Age_7+_Practice_v2.1	PSPACPA5	2	1	6	n/a	practice
5051	1	post	2	6	3	NIH_Toolbox_Pattern_Comparison_Processing_Speed_Test_Age_7+_Practice_v2.1	PSPACPA6	1	1	7	n/a	practice
5051	1	post	2	9	1	NIH_Toolbox_Pattern_Comparison_Processing_Speed_Test_Age_7+_Practice_v2.1	PSPAC_TRANSITION	-1	n/a	8	n/a	practice
5051	1	post	3	1	1	NIH_Toolbox_Pattern_Comparison_Processing_Speed_Test_Age_7+_v2.1	PSPAC003	1	1	1	1.99084	main
5051	1	post	3	1	2	NIH_Toolbox_Pattern_Comparison_Processing_Speed_Test_Age_7+_v2.1	PSPAC013	2	1	2	1.469615	main
5051	1	post	3	1	3	NIH_Toolbox_Pattern_Comparison_Processing_Speed_Test_Age_7+_v2.1	PSPAC005	2	0	3	1.605846	main
5051	1	post	3	1	4	NIH_Toolbox_Pattern_Comparison_Processing_Speed_Test_Age_7+_v2.1	PSPAC002	1	1	4	1.986435	main
5051	1	post	3	1	5	NIH_Toolbox_Pattern_Comparison_Processing_Speed_Test_Age_7+_v2.1	PSPAC021	2	1	5	1.564601	main
5051	1	post	3	1	6	NIH_Toolbox_Pattern_Comparison_Processing_Speed_Test_Age_7+_v2.1	PSPAC006	1	1	6	1.789369	main
5051	1	post	3	1	7	NIH_Toolbox_Pattern_Comparison_Processing_Speed_Test_Age_7+_v2.1	PSPAC023	2	1	7	1.265333	main
5051	1	post	3	1	8	NIH_Toolbox_Pattern_Comparison_Processing_Speed_Test_Age_7+_v2.1	PSPAC019	2	1	8	1.780679	main
5051	1	post	3	1	9	NIH_Toolbox_Pattern_Comparison_Processing_Speed_Test_Age_7+_v2.1	PSPAC007	2	0	9	1.451956	main
5051	1	post	3	1	10	NIH_Toolbox_Pattern_Comparison_Processing_Speed_Test_Age_7+_v2.1	PSPAC029	2	1	10	1.9247	main
5051	1	post	3	1	11	NIH_Toolbox_Pattern_Comparison_Processing_Speed_Test_Age_7+_v2.1	PSPAC055	1	1	11	2.97455	main
5051	1	post	3	1	12	NIH_Toolbox_Pattern_Comparison_Processing_Speed_Test_Age_7+_v2.1	PSPAC018	1	1	12	1.562236	main
5051	1	post	3	1	13	NIH_Toolbox_Pattern_Comparison_Processing_Speed_Test_Age_7+_v2.1	PSPAC031	2	1	13	1.898544	main
5051	1	post	3	1	14	NIH_Toolbox_Pattern_Comparison_Processing_Speed_Test_Age_7+_v2.1	PSPAC030	2	1	14	1.513507	main
5051	1	post	3	1	15	NIH_Toolbox_Pattern_Comparison_Processing_Speed_Test_Age_7+_v2.1	PSPAC061	2	1	15	1.666903	main
5051	1	post	3	1	16	NIH_Toolbox_Pattern_Comparison_Processing_Speed_Test_Age_7+_v2.1	PSPAC024	2	0	16	1.901585	main
5051	1	post	3	1	17	NIH_Toolbox_Pattern_Comparison_Processing_Speed_Test_Age_7+_v2.1	PSPAC028	2	0	17	2.613429	main
5051	1	post	3	1	18	NIH_Toolbox_Pattern_Comparison_Processing_Speed_Test_Age_7+_v2.1	PSPAC039	2	1	18	1.900562	main
5051	1	post	3	1	19	NIH_Toolbox_Pattern_Comparison_Processing_Speed_Test_Age_7+_v2.1	PSPAC113	1	1	19	1.534018	main
5051	1	post	3	1	20	NIH_Toolbox_Pattern_Comparison_Processing_Speed_Test_Age_7+_v2.1	PSPAC253	2	1	20	1.456499	main
5051	1	post	3	1	21	NIH_Toolbox_Pattern_Comparison_Processing_Speed_Test_Age_7+_v2.1	PSPAC036	1	1	21	1.868566	main
5051	1	post	3	1	22	NIH_Toolbox_Pattern_Comparison_Processing_Speed_Test_Age_7+_v2.1	PSPAC037	1	1	22	2.146619	main
5051	1	post	3	1	23	NIH_Toolbox_Pattern_Comparison_Processing_Speed_Test_Age_7+_v2.1	PSPAC041	1	1	23	1.515276	main
5051	1	post	3	1	24	NIH_Toolbox_Pattern_Comparison_Processing_Speed_Test_Age_7+_v2.1	PSPAC095	2	1	24	1.610834	main
5051	1	post	3	1	25	NIH_Toolbox_Pattern_Comparison_Processing_Speed_Test_Age_7+_v2.1	PSPAC110	2	1	25	1.794315	main
5051	1	post	3	1	26	NIH_Toolbox_Pattern_Comparison_Processing_Speed_Test_Age_7+_v2.1	PSPAC138	2	1	26	1.434832	main
5051	1	post	3	1	27	NIH_Toolbox_Pattern_Comparison_Processing_Speed_Test_Age_7+_v2.1	PSPAC043	1	1	27	1.946719	main
5051	1	post	3	1	28	NIH_Toolbox_Pattern_Comparison_Processing_Speed_Test_Age_7+_v2.1	PSPAC032	2	1	28	1.662284	main
5051	1	post	3	1	29	NIH_Toolbox_Pattern_Comparison_Processing_Speed_Test_Age_7+_v2.1	PSPAC047	1	1	29	1.715366	main
5051	1	post	3	1	30	NIH_Toolbox_Pattern_Comparison_Processing_Speed_Test_Age_7+_v2.1	PSPAC004	2	1	30	1.667098	main
5051	1	post	3	1	31	NIH_Toolbox_Pattern_Comparison_Processing_Speed_Test_Age_7+_v2.1	PSPAC044	2	1	31	1.500602	main
5051	1	post	3	1	32	NIH_Toolbox_Pattern_Comparison_Processing_Speed_Test_Age_7+_v2.1	PSPAC212	1	1	32	1.622433	main
5051	1	post	3	1	33	NIH_Toolbox_Pattern_Comparison_Processing_Speed_Test_Age_7+_v2.1	PSPAC016	2	1	33	1.272909	main
5051	1	post	3	1	34	NIH_Toolbox_Pattern_Comparison_Processing_Speed_Test_Age_7+_v2.1	PSPAC014	1	1	34	1.902222	main
5051	1	post	3	1	35	NIH_Toolbox_Pattern_Comparison_Processing_Speed_Test_Age_7+_v2.1	PSPAC052	2	1	35	1.771289	main
5051	1	post	3	1	36	NIH_Toolbox_Pattern_Comparison_Processing_Speed_Test_Age_7+_v2.1	PSPAC056	1	1	36	1.53951	main
5051	1	post	3	1	37	NIH_Toolbox_Pattern_Comparison_Processing_Speed_Test_Age_7+_v2.1	PSPAC008	2	0	37	1.622523	main
5051	1	post	3	1	38	NIH_Toolbox_Pattern_Comparison_Processing_Speed_Test_Age_7+_v2.1	PSPAC058	2	1	38	2.91751	main
5051	1	post	3	1	39	NIH_Toolbox_Pattern_Comparison_Processing_Speed_Test_Age_7+_v2.1	PSPAC059	1	1	39	2.003813	main
5051	1	post	3	1	40	NIH_Toolbox_Pattern_Comparison_Processing_Speed_Test_Age_7+_v2.1	PSPAC116	2	1	40	1.946601	main
5051	1	post	3	1	41	NIH_Toolbox_Pattern_Comparison_Processing_Speed_Test_Age_7+_v2.1	PSPAC051	2	1	41	1.337921	main
5051	1	post	3	1	42	NIH_Toolbox_Pattern_Comparison_Processing_Speed_Test_Age_7+_v2.1	PSPAC053	2	1	42	1.770261	main
5051	1	post	3	1	43	NIH_Toolbox_Pattern_Comparison_Processing_Speed_Test_Age_7+_v2.1	PSPAC141	1	1	43	2.026076	main
5051	1	post	3	1	44	NIH_Toolbox_Pattern_Comparison_Processing_Speed_Test_Age_7+_v2.1	PSPAC038	2	1	44	1.531541	main
5051	1	post	3	1	45	NIH_Toolbox_Pattern_Comparison_Processing_Speed_Test_Age_7+_v2.1	PSPAC065	1	1	45	2.01279	main
5051	1	post	3	1	46	NIH_Toolbox_Pattern_Comparison_Processing_Speed_Test_Age_7+_v2.1	PSPAC060	2	1	46	1.637522	main
5051	1	post	3	1	47	NIH_Toolbox_Pattern_Comparison_Processing_Speed_Test_Age_7+_v2.1	PSPAC068	1	1	47	1.871677	main
5051	1	post	3	1	48	NIH_Toolbox_Pattern_Comparison_Processing_Speed_Test_Age_7+_v2.1	PSPAC066	1	1	48	2.016645	main
5051	1	post	4	13	1	NIH_Toolbox_Flanker_Inhibitory_Control_and_Attention_Test_Age_12+_v2.1	FLANKER_ARROW_PRAC1	1	1	1	0.282111	practice
5051	1	post	4	13	2	NIH_Toolbox_Flanker_Inhibitory_Control_and_Attention_Test_Age_12+_v2.1	FLANKER_ARROW_PRAC2	2	1	2	0.688374	practice
5051	1	post	4	13	3	NIH_Toolbox_Flanker_Inhibitory_Control_and_Attention_Test_Age_12+_v2.1	FLANKER_ARROW_PRAC3	1	1	3	0.921139	practice
5051	1	post	4	13	4	NIH_Toolbox_Flanker_Inhibitory_Control_and_Attention_Test_Age_12+_v2.1	FLANKER_ARROW_PRAC4	2	1	4	1.132071	practice
5051	1	post	4	19	1	NIH_Toolbox_Flanker_Inhibitory_Control_and_Attention_Test_Age_12+_v2.1	FLANKER_ARROW_CONGRUENT1	1	1	5	0.678215	main
5051	1	post	4	19	2	NIH_Toolbox_Flanker_Inhibitory_Control_and_Attention_Test_Age_12+_v2.1	FLANKER_ARROW_CONGRUENT2	2	1	6	0.641099	main
5051	1	post	4	19	3	NIH_Toolbox_Flanker_Inhibitory_Control_and_Attention_Test_Age_12+_v2.1	FLANKER_ARROW_INCONGRUENT3	2	1	7	0.597516	main
5051	1	post	4	19	4	NIH_Toolbox_Flanker_Inhibitory_Control_and_Attention_Test_Age_12+_v2.1	FLANKER_ARROW_CONGRUENT4	2	1	8	0.703864	main
5051	1	post	4	19	5	NIH_Toolbox_Flanker_Inhibitory_Control_and_Attention_Test_Age_12+_v2.1	FLANKER_ARROW_INCONGRUENT5	2	1	9	0.709429	main
5051	1	post	4	19	6	NIH_Toolbox_Flanker_Inhibitory_Control_and_Attention_Test_Age_12+_v2.1	FLANKER_ARROW_CONGRUENT6	2	1	10	0.67615	main
5051	1	post	4	19	7	NIH_Toolbox_Flanker_Inhibitory_Control_and_Attention_Test_Age_12+_v2.1	FLANKER_ARROW_INCONGRUENT7	1	1	11	0.759634	main
5051	1	post	4	19	8	NIH_Toolbox_Flanker_Inhibitory_Control_and_Attention_Test_Age_12+_v2.1	FLANKER_ARROW_CONGRUENT8	1	1	12	0.629814	main
5051	1	post	4	19	9	NIH_Toolbox_Flanker_Inhibitory_Control_and_Attention_Test_Age_12+_v2.1	FLANKER_ARROW_CONGRUENT9	1	1	13	0.582577	main
5051	1	post	4	19	10	NIH_Toolbox_Flanker_Inhibitory_Control_and_Attention_Test_Age_12+_v2.1	FLANKER_ARROW_INCONGRUENT10	1	1	14	0.62191	main
5051	1	post	4	19	11	NIH_Toolbox_Flanker_Inhibitory_Control_and_Attention_Test_Age_12+_v2.1	FLANKER_ARROW_CONGRUENT11	1	1	15	0.617665	main
5051	1	post	4	19	12	NIH_Toolbox_Flanker_Inhibitory_Control_and_Attention_Test_Age_12+_v2.1	FLANKER_ARROW_CONGRUENT12	2	1	16	0.68798	main
5051	1	post	4	19	13	NIH_Toolbox_Flanker_Inhibitory_Control_and_Attention_Test_Age_12+_v2.1	FLANKER_ARROW_INCONGRUENT13	2	1	17	0.700155	main
5051	1	post	4	19	14	NIH_Toolbox_Flanker_Inhibitory_Control_and_Attention_Test_Age_12+_v2.1	FLANKER_ARROW_CONGRUENT14	2	1	18	0.519379	main
5051	1	post	4	19	15	NIH_Toolbox_Flanker_Inhibitory_Control_and_Attention_Test_Age_12+_v2.1	FLANKER_ARROW_INCONGRUENT15	2	1	19	0.503399	main
5051	1	post	4	19	16	NIH_Toolbox_Flanker_Inhibitory_Control_and_Attention_Test_Age_12+_v2.1	FLANKER_ARROW_CONGRUENT16	1	1	20	0.587916	main
5051	1	post	4	19	17	NIH_Toolbox_Flanker_Inhibitory_Control_and_Attention_Test_Age_12+_v2.1	FLANKER_ARROW_INCONGRUENT17	1	1	21	0.642649	main
5051	1	post	4	19	18	NIH_Toolbox_Flanker_Inhibitory_Control_and_Attention_Test_Age_12+_v2.1	FLANKER_ARROW_CONGRUENT18	2	1	22	0.709805	main
5051	1	post	4	19	19	NIH_Toolbox_Flanker_Inhibitory_Control_and_Attention_Test_Age_12+_v2.1	FLANKER_ARROW_CONGRUENT19	1	1	23	0.648251	main
5051	1	post	4	19	20	NIH_Toolbox_Flanker_Inhibitory_Control_and_Attention_Test_Age_12+_v2.1	FLANKER_ARROW_INCONGRUENT20	2	1	24	0.536393	main
