trial	trial_type	stimulus	fontsize	response	accuracy	reactiontime
1	go	1	10	1	1	770
2	go	4	13	1	1	352
3	go	1	16	1	1	273
4	go	1	4	1	1	265
5	go	5	13	1	1	279
6	go	1	7	1	1	249
7	go	8	16	1	1	300
8	go	6	10	1	1	280
9	go	5	10	1	1	303
10	go	7	10	1	1	309
11	go	7	13	1	1	325
12	go	9	7	1	1	248
13	go	2	7	1	1	302
14	nogo	3	7	1	0	233
15	go	8	16	1	1	274
16	go	5	10	1	1	266
17	go	5	13	1	1	258
18	go	6	16	1	1	333
19	go	1	13	1	1	296
20	go	8	10	1	1	313
21	go	9	16	1	1	457
22	go	8	13	1	1	311
23	go	2	13	1	1	353
24	go	7	16	1	1	413
25	go	6	10	1	1	313
26	go	4	4	1	1	364
27	go	8	4	1	1	435
28	go	6	10	1	1	372
29	go	8	13	1	1	347
30	go	2	7	1	1	368
31	go	9	16	1	1	359
32	go	8	4	1	1	371
33	go	9	13	1	1	223
34	go	5	13	1	1	264
35	go	2	4	1	1	305
36	go	4	7	1	1	317
37	nogo	3	10	1	0	215
38	go	5	7	1	1	484
39	go	5	4	1	1	341
40	go	6	4	1	1	303
41	nogo	3	13	1	0	298
42	go	2	13	1	1	378
43	go	7	7	1	1	300
44	go	5	13	1	1	318
45	go	7	13	1	1	314
46	go	8	10	1	1	361
47	go	2	16	1	1	501
48	go	7	16	1	1	401
49	go	4	13	1	1	325
50	go	1	7	1	1	316
51	nogo	3	7	1	0	200
52	go	7	10	1	1	305
53	go	4	4	1	1	301
54	go	6	16	1	1	414
55	go	4	10	1	1	34
56	go	8	13	1	1	327
57	go	8	4	1	1	333
58	go	4	10	1	1	416
59	go	1	16	1	1	391
60	go	9	16	1	1	307
61	go	9	10	1	1	353
62	go	4	10	1	1	301
63	go	8	16	1	1	323
64	go	2	7	1	1	537
65	go	2	7	1	1	382
66	go	8	7	1	1	299
67	go	7	16	1	1	151
68	nogo	3	4	1	0	53
69	go	4	7	1	1	227
70	go	7	10	1	1	541
71	go	1	10	1	1	559
72	go	4	7	1	1	464
73	nogo	3	4	0	1	n/a
74	go	5	7	1	1	341
75	go	9	7	1	1	355
76	go	8	10	1	1	314
77	go	4	7	1	1	274
78	go	7	10	1	1	441
79	go	4	10	1	1	434
80	go	1	16	1	1	337
81	go	2	13	1	1	389
82	go	6	4	1	1	562
83	go	6	4	1	1	454
84	go	4	4	1	1	153
85	go	6	4	1	1	263
86	go	6	7	1	1	327
87	go	9	7	1	1	568
88	go	9	7	1	1	401
89	go	7	16	1	1	47
90	go	6	16	0	0	n/a
91	go	4	16	1	1	66
92	go	1	13	1	1	269
93	go	7	4	1	1	400
94	nogo	3	16	1	0	260
95	nogo	3	16	1	0	20
96	go	9	10	1	1	102
97	go	8	16	1	1	301
98	go	2	16	1	1	311
99	go	7	13	1	1	245
100	go	6	7	1	1	300
101	go	6	4	1	1	271
102	go	1	7	1	1	194
103	go	9	10	1	1	231
104	go	9	10	1	1	275
105	nogo	3	16	0	1	n/a
106	go	1	13	1	1	360
107	go	4	7	1	1	408
108	go	1	10	1	1	346
109	go	1	13	1	1	304
110	go	2	4	1	1	399
111	nogo	3	10	1	0	334
112	go	6	16	1	1	263
113	go	8	16	1	1	25
114	go	5	13	1	1	302
115	go	9	16	1	1	146
116	nogo	3	7	1	0	160
117	go	9	10	1	1	222
118	go	5	13	1	1	192
119	go	5	4	1	1	479
120	go	4	16	1	1	456
121	go	2	7	1	1	601
122	go	6	13	1	1	421
123	go	8	7	1	1	269
124	nogo	3	10	1	0	331
125	go	8	4	1	1	712
126	go	4	13	1	1	502
127	go	4	13	1	1	384
128	go	2	4	1	1	385
129	go	5	4	1	1	307
130	go	2	10	1	1	383
131	go	1	13	1	1	622
132	go	1	7	1	1	412
133	go	5	13	1	1	381
134	go	9	7	1	1	318
135	go	5	4	1	1	342
136	go	4	7	1	1	305
137	go	5	10	1	1	137
138	nogo	3	10	1	0	152
139	go	4	7	1	1	332
140	go	2	16	1	1	114
141	go	5	7	1	1	907
142	go	6	10	1	1	99
143	go	9	4	1	1	339
144	go	4	4	1	1	422
145	go	6	10	1	1	392
146	nogo	3	13	1	0	397
147	go	1	10	1	1	793
148	go	5	16	0	0	n/a
149	go	5	13	1	1	168
150	go	4	4	1	1	418
151	go	6	13	1	1	389
152	go	4	4	1	1	329
153	go	5	10	1	1	435
154	go	5	13	1	1	387
155	go	6	13	1	1	335
156	go	2	4	1	1	350
157	nogo	3	16	0	1	n/a
158	go	8	16	1	1	386
159	nogo	3	4	0	1	n/a
160	go	1	13	1	1	399
161	go	9	7	1	1	610
162	nogo	3	16	1	0	367
163	go	2	7	1	1	473
164	go	7	16	1	1	397
165	go	6	10	1	1	458
166	go	6	10	1	1	276
167	go	2	10	1	1	386
168	go	2	16	1	1	413
169	go	8	7	1	1	664
170	go	8	13	1	1	374
171	go	6	16	1	1	339
172	nogo	3	16	1	0	400
173	go	2	16	1	1	369
174	go	1	10	1	1	497
175	go	6	16	1	1	162
176	go	1	4	1	1	132
177	nogo	3	7	1	0	372
178	go	1	4	1	1	331
179	go	7	7	1	1	1112
180	go	2	7	1	1	148
181	go	9	13	1	1	373
182	go	9	10	1	1	391
183	go	8	4	1	1	476
184	go	7	7	1	1	354
185	go	2	4	1	1	109
186	go	7	16	1	1	243
187	go	9	7	1	1	349
188	go	7	10	1	1	154
189	go	1	13	1	1	418
190	go	4	16	1	1	376
191	go	8	7	0	0	n/a
192	go	5	7	1	1	62
193	go	9	10	1	1	332
194	go	5	4	1	1	281
195	go	6	10	1	1	222
196	go	9	10	1	1	122
197	nogo	3	7	0	1	n/a
198	go	9	4	1	1	107
199	go	8	7	1	1	191
200	go	7	13	1	1	160
201	nogo	3	4	1	0	84
202	go	4	4	1	1	244
203	nogo	3	4	1	0	318
204	go	1	16	1	1	609
205	go	6	16	1	1	258
206	go	5	13	1	1	279
207	go	9	13	1	1	304
208	go	2	13	1	1	54
209	go	7	16	1	1	47
210	go	7	13	1	1	106
211	go	1	16	1	1	696
212	go	8	13	1	1	570
213	go	7	4	1	1	470
214	go	1	10	1	1	341
215	go	7	16	1	1	795
216	nogo	3	4	1	0	33
217	nogo	3	13	1	0	353
218	go	2	4	1	1	472
219	go	2	4	1	1	427
220	go	7	4	1	1	434
221	go	5	4	1	1	300
222	nogo	3	13	0	1	n/a
223	go	7	10	1	1	314
224	go	8	4	1	1	464
225	go	9	7	1	1	408
