trial	trial_type	stimulus	fontsize	response	accuracy	reactiontime
1	go	1	16	1	1	941
2	go	4	16	1	1	637
3	go	1	10	1	1	580
4	go	1	7	1	1	576
5	go	5	4	1	1	578
6	go	1	4	1	1	657
7	go	8	7	1	1	718
8	go	6	7	1	1	738
9	go	5	16	1	1	762
10	go	7	10	1	1	692
11	go	7	13	1	1	751
12	go	9	13	1	1	687
13	go	2	10	1	1	702
14	nogo	3	4	0	1	n/a
15	go	8	7	1	1	785
16	go	5	4	1	1	638
17	go	5	16	1	1	763
18	go	6	7	1	1	851
19	go	1	13	1	1	865
20	go	8	10	1	1	880
21	go	9	4	1	1	833
22	go	8	7	1	1	787
23	go	2	10	1	1	734
24	go	7	13	1	1	658
25	go	6	4	1	1	588
26	go	4	4	1	1	720
27	go	8	10	1	1	663
28	go	6	10	1	1	618
29	go	8	16	1	1	684
30	go	2	4	1	1	715
31	go	9	13	1	1	570
32	go	8	13	1	1	615
33	go	9	7	1	1	446
34	go	5	7	1	1	607
35	go	2	16	1	1	537
36	go	4	4	1	1	625
37	nogo	3	13	0	1	n/a
38	go	5	16	1	1	739
39	go	5	10	1	1	620
40	go	6	13	1	1	545
41	nogo	3	7	0	1	n/a
42	go	2	4	1	1	819
43	go	7	13	1	1	743
44	go	5	13	1	1	830
45	go	7	4	1	1	858
46	go	8	16	1	1	861
47	go	2	4	1	1	808
48	go	7	16	1	1	892
49	go	4	16	1	1	771
50	go	1	10	1	1	659
51	nogo	3	7	0	1	n/a
52	go	7	13	1	1	1146
53	go	4	16	1	1	732
54	go	6	16	1	1	682
55	go	4	10	1	1	743
56	go	8	13	1	1	855
57	go	8	10	1	1	739
58	go	4	13	1	1	774
59	go	1	7	1	1	770
60	go	9	7	1	1	834
61	go	9	4	1	1	805
62	go	4	4	1	1	825
63	go	8	16	1	1	707
64	go	2	13	1	1	654
65	go	2	7	1	1	552
66	go	8	10	1	1	665
67	go	7	10	1	1	428
68	nogo	3	7	0	1	n/a
69	go	4	13	1	1	942
70	go	7	4	1	1	569
71	go	1	4	1	1	398
72	go	4	16	1	1	442
73	nogo	3	10	0	1	n/a
74	go	5	4	1	1	829
75	go	9	13	1	1	616
76	go	8	10	1	1	407
77	go	4	16	1	1	473
78	go	7	7	1	1	517
79	go	4	7	1	1	577
80	go	1	4	1	1	580
81	go	2	7	1	1	555
82	go	6	7	1	1	571
83	go	6	13	1	1	473
84	go	4	7	1	1	582
85	go	6	16	1	1	554
86	go	6	10	1	1	546
87	go	9	4	1	1	551
88	go	9	13	1	1	527
89	go	7	7	1	1	526
90	go	6	10	1	1	422
91	go	4	4	1	1	475
92	go	1	7	1	1	628
93	go	7	13	1	1	562
94	nogo	3	4	0	1	n/a
95	nogo	3	4	0	1	n/a
96	go	9	16	1	1	876
97	go	8	10	1	1	684
98	go	2	16	1	1	722
99	go	7	13	1	1	782
100	go	6	13	1	1	729
101	go	6	4	1	1	633
102	go	1	13	1	1	481
103	go	9	4	1	1	462
104	go	9	13	1	1	437
105	nogo	3	10	1	0	389
106	go	1	4	1	1	615
107	go	4	10	1	1	673
108	go	1	16	1	1	604
109	go	1	7	1	1	692
110	go	2	4	1	1	756
111	nogo	3	10	0	1	n/a
112	go	6	7	1	1	861
113	go	8	16	1	1	785
114	go	5	10	1	1	597
115	go	9	7	1	1	635
116	nogo	3	4	0	1	n/a
117	go	9	10	1	1	768
118	go	5	16	1	1	579
119	go	5	16	1	1	487
120	go	4	10	1	1	594
121	go	2	16	1	1	568
122	go	6	10	1	1	427
123	go	8	7	1	1	489
124	nogo	3	4	0	1	n/a
125	go	8	16	1	1	989
126	go	4	16	1	1	621
127	go	4	7	1	1	597
128	go	2	4	1	1	817
129	go	5	13	1	1	626
130	go	2	16	1	1	527
131	go	1	16	1	1	365
132	go	1	13	1	1	340
133	go	5	10	1	1	441
134	go	9	4	1	1	597
135	go	5	10	1	1	595
136	go	4	10	1	1	660
137	go	5	10	1	1	702
138	nogo	3	16	0	1	n/a
139	go	4	13	1	1	813
140	go	2	16	1	1	671
141	go	5	7	1	1	732
142	go	6	4	1	1	768
143	go	9	4	1	1	744
144	go	4	13	1	1	787
145	go	6	16	1	1	665
146	nogo	3	4	0	1	n/a
147	go	1	13	1	1	1050
148	go	5	16	1	1	495
149	go	5	7	1	1	610
150	go	4	10	1	1	383
151	go	6	16	1	1	525
152	go	4	16	1	1	548
153	go	5	13	1	1	699
154	go	5	10	1	1	601
155	go	6	7	1	1	507
156	go	2	16	1	1	484
157	nogo	3	10	0	1	n/a
158	go	8	13	1	1	618
159	nogo	3	7	1	0	515
160	go	1	4	1	1	652
161	go	9	7	1	1	600
162	nogo	3	10	0	1	n/a
163	go	2	13	1	1	1004
164	go	7	10	1	1	593
165	go	6	13	1	1	540
166	go	6	10	1	1	547
167	go	2	13	1	1	431
168	go	2	16	1	1	345
169	go	8	7	1	1	404
170	go	8	4	1	1	298
171	go	6	16	1	1	380
172	nogo	3	7	0	1	n/a
173	go	2	7	1	1	815
174	go	1	13	1	1	509
175	go	6	13	1	1	580
176	go	1	10	1	1	676
177	nogo	3	10	0	1	n/a
178	go	1	4	1	1	720
179	go	7	13	1	1	532
180	go	2	10	1	1	322
181	go	9	4	1	1	400
182	go	9	4	1	1	437
183	go	8	16	1	1	425
184	go	7	13	1	1	377
185	go	2	4	1	1	657
186	go	7	7	1	1	634
187	go	9	16	1	1	789
188	go	7	4	1	1	648
189	go	1	7	1	1	551
190	go	4	7	1	1	384
191	go	8	16	1	1	451
192	go	5	16	1	1	541
193	go	9	10	1	1	334
194	go	5	13	1	1	740
195	go	6	7	1	1	561
196	go	9	13	1	1	567
197	nogo	3	7	0	1	n/a
198	go	9	4	1	1	674
199	go	8	10	1	1	476
200	go	7	16	1	1	480
201	nogo	3	4	0	1	n/a
202	go	4	16	0	0	n/a
203	nogo	3	4	1	0	56
204	go	1	16	0	0	n/a
205	go	6	7	1	1	98
206	go	5	10	1	1	513
207	go	9	7	1	1	307
208	go	2	10	1	1	314
209	go	7	13	1	1	256
210	go	7	7	1	1	336
211	go	1	4	1	1	466
212	go	8	7	1	1	673
213	go	7	16	1	1	687
214	go	1	4	1	1	702
215	go	7	13	1	1	807
216	nogo	3	13	1	0	464
217	nogo	3	10	1	0	529
218	go	2	10	1	1	498
219	go	2	16	1	1	406
220	go	7	13	1	1	324
221	go	5	7	1	1	305
222	nogo	3	7	1	0	359
223	go	7	10	1	1	513
224	go	8	13	1	1	640
225	go	9	13	1	1	608
