trial	trial_type	stimulus	fontsize	response	accuracy	reactiontime
1	go	1	13	0	0	n/a
2	go	4	4	1	1	505
3	go	1	10	1	1	498
4	go	1	13	1	1	606
5	go	5	4	1	1	582
6	go	1	16	1	1	512
7	go	8	7	1	1	458
8	go	6	4	1	1	458
9	go	5	7	1	1	587
10	go	7	7	1	1	555
11	go	7	16	1	1	507
12	go	9	13	1	1	508
13	go	2	13	1	1	428
14	nogo	3	16	0	1	n/a
15	go	8	16	1	1	477
16	go	5	10	1	1	556
17	go	5	4	1	1	662
18	go	6	13	1	1	564
19	go	1	13	1	1	536
20	go	8	4	1	1	661
21	go	9	13	1	1	586
22	go	8	10	1	1	693
23	go	2	10	1	1	774
24	go	7	7	1	1	767
25	go	6	4	1	1	804
26	go	4	16	1	1	657
27	go	8	10	1	1	721
28	go	6	7	1	1	668
29	go	8	13	1	1	687
30	go	2	16	1	1	700
31	go	9	13	1	1	691
32	go	8	4	1	1	504
33	go	9	10	1	1	722
34	go	5	10	1	1	637
35	go	2	4	1	1	668
36	go	4	4	1	1	548
37	nogo	3	7	0	1	n/a
38	go	5	4	1	1	785
39	go	5	13	1	1	1009
40	go	6	16	1	1	731
41	nogo	3	4	0	1	n/a
42	go	2	13	1	1	609
43	go	7	10	1	1	581
44	go	5	16	1	1	506
45	go	7	13	1	1	537
46	go	8	13	1	1	495
47	go	2	7	1	1	629
48	go	7	7	1	1	644
49	go	4	7	1	1	726
50	go	1	10	1	1	583
51	nogo	3	4	0	1	n/a
52	go	7	13	1	1	663
53	go	4	16	1	1	567
54	go	6	7	1	1	604
55	go	4	4	1	1	643
56	go	8	4	1	1	646
57	go	8	13	1	1	661
58	go	4	16	1	1	720
59	go	1	16	1	1	647
60	go	9	16	1	1	660
61	go	9	10	1	1	653
62	go	4	16	1	1	670
63	go	8	10	1	1	637
64	go	2	16	1	1	658
65	go	2	7	1	1	673
66	go	8	10	1	1	605
67	go	7	10	1	1	671
68	nogo	3	7	0	1	n/a
69	go	4	4	1	1	773
70	go	7	7	1	1	687
71	go	1	10	1	1	634
72	go	4	4	1	1	701
73	nogo	3	7	0	1	n/a
74	go	5	13	1	1	601
75	go	9	4	1	1	532
76	go	8	10	1	1	600
77	go	4	7	1	1	613
78	go	7	16	1	1	696
79	go	4	16	1	1	576
80	go	1	10	1	1	709
81	go	2	4	1	1	730
82	go	6	4	1	1	789
83	go	6	13	1	1	697
84	go	4	10	1	1	667
85	go	6	13	1	1	752
86	go	6	16	1	1	626
87	go	9	7	1	1	623
88	go	9	16	1	1	885
89	go	7	13	1	1	720
90	go	6	16	1	1	715
91	go	4	10	1	1	620
92	go	1	16	1	1	568
93	go	7	10	1	1	651
94	nogo	3	4	0	1	n/a
95	nogo	3	4	0	1	n/a
96	go	9	4	1	1	674
97	go	8	4	1	1	710
98	go	2	7	1	1	658
99	go	7	10	1	1	614
100	go	6	16	1	1	464
101	go	6	10	1	1	574
102	go	1	7	1	1	450
103	go	9	10	1	1	706
104	go	9	16	1	1	721
105	nogo	3	13	0	1	n/a
106	go	1	16	1	1	689
107	go	4	16	1	1	523
108	go	1	7	1	1	467
109	go	1	16	1	1	507
110	go	2	16	1	1	580
111	nogo	3	13	0	1	n/a
112	go	6	10	1	1	662
113	go	8	13	1	1	564
114	go	5	7	1	1	676
115	go	9	4	1	1	619
116	nogo	3	10	0	1	n/a
117	go	9	4	1	1	633
118	go	5	10	1	1	599
119	go	5	7	1	1	684
120	go	4	10	1	1	674
121	go	2	7	1	1	523
122	go	6	16	1	1	485
123	go	8	4	1	1	634
124	nogo	3	7	0	1	n/a
125	go	8	7	1	1	620
126	go	4	13	1	1	502
127	go	4	4	1	1	651
128	go	2	16	1	1	528
129	go	5	7	1	1	590
130	go	2	4	1	1	471
131	go	1	16	1	1	530
132	go	1	13	1	1	478
133	go	5	4	1	1	694
134	go	9	10	1	1	462
135	go	5	4	1	1	457
136	go	4	4	1	1	612
137	go	5	7	1	1	490
138	nogo	3	4	0	1	n/a
139	go	4	13	1	1	436
140	go	2	7	1	1	496
141	go	5	13	1	1	511
142	go	6	16	1	1	458
143	go	9	10	1	1	564
144	go	4	4	1	1	630
145	go	6	13	1	1	689
146	nogo	3	10	0	1	n/a
147	go	1	10	1	1	679
148	go	5	13	1	1	538
149	go	5	7	1	1	643
150	go	4	4	1	1	522
151	go	6	4	1	1	512
152	go	4	10	1	1	488
153	go	5	7	1	1	434
154	go	5	10	1	1	595
155	go	6	7	1	1	498
156	go	2	4	1	1	692
157	nogo	3	7	0	1	n/a
158	go	8	16	1	1	659
159	nogo	3	16	0	1	n/a
160	go	1	13	1	1	584
161	go	9	7	1	1	762
162	nogo	3	7	0	1	n/a
163	go	2	16	1	1	596
164	go	7	7	1	1	571
165	go	6	7	1	1	547
166	go	6	10	1	1	584
167	go	2	7	1	1	525
168	go	2	10	1	1	522
169	go	8	13	1	1	508
170	go	8	16	1	1	736
171	go	6	10	1	1	748
172	nogo	3	13	0	1	n/a
173	go	2	13	1	1	627
174	go	1	4	1	1	664
175	go	6	10	1	1	641
176	go	1	4	1	1	495
177	nogo	3	10	0	1	n/a
178	go	1	10	1	1	539
179	go	7	13	1	1	488
180	go	2	10	1	1	616
181	go	9	13	1	1	719
182	go	9	7	1	1	600
183	go	8	13	1	1	592
184	go	7	7	1	1	628
185	go	2	13	1	1	595
186	go	7	4	1	1	704
187	go	9	7	1	1	720
188	go	7	16	1	1	669
189	go	1	13	1	1	444
190	go	4	10	1	1	606
191	go	8	10	1	1	476
192	go	5	4	1	1	838
193	go	9	7	1	1	673
194	go	5	4	1	1	668
195	go	6	16	1	1	517
196	go	9	16	1	1	538
197	nogo	3	4	0	1	n/a
198	go	9	13	1	1	524
199	go	8	4	1	1	544
200	go	7	16	1	1	650
201	nogo	3	13	0	1	n/a
202	go	4	10	1	1	460
203	nogo	3	16	0	1	n/a
204	go	1	16	1	1	591
205	go	6	13	1	1	564
206	go	5	16	1	1	688
207	go	9	16	1	1	682
208	go	2	13	1	1	651
209	go	7	4	1	1	689
210	go	7	7	1	1	592
211	go	1	16	1	1	651
212	go	8	13	1	1	486
213	go	7	16	1	1	658
214	go	1	7	1	1	485
215	go	7	10	1	1	465
216	nogo	3	13	0	1	n/a
217	nogo	3	7	0	1	n/a
218	go	2	13	1	1	622
219	go	2	10	1	1	487
220	go	7	4	1	1	438
221	go	5	13	1	1	523
222	nogo	3	7	0	1	n/a
223	go	7	10	1	1	625
224	go	8	16	1	1	619
225	go	9	7	1	1	729
