trial	trial_type	stimulus	fontsize	response	accuracy	reactiontime
1	go	1	4	1	1	874
2	go	4	7	1	1	547
3	go	1	10	1	1	380
4	go	1	10	1	1	368
5	go	5	10	1	1	389
6	go	1	13	1	1	381
7	go	8	10	1	1	327
8	go	6	16	1	1	344
9	go	5	13	1	1	399
10	go	7	10	1	1	420
11	go	7	4	1	1	344
12	go	9	10	1	1	353
13	go	2	16	1	1	391
14	nogo	3	4	0	1	n/a
15	go	8	4	1	1	381
16	go	5	7	1	1	453
17	go	5	10	1	1	327
18	go	6	16	1	1	429
19	go	1	4	1	1	434
20	go	8	10	1	1	399
21	go	9	4	1	1	435
22	go	8	16	1	1	377
23	go	2	7	1	1	378
24	go	7	13	1	1	422
25	go	6	16	1	1	381
26	go	4	16	1	1	279
27	go	8	13	1	1	394
28	go	6	16	1	1	330
29	go	8	13	1	1	367
30	go	2	10	1	1	388
31	go	9	16	1	1	398
32	go	8	4	1	1	347
33	go	9	4	1	1	315
34	go	5	7	1	1	393
35	go	2	4	1	1	335
36	go	4	7	1	1	366
37	nogo	3	7	0	1	n/a
38	go	5	7	1	1	364
39	go	5	13	1	1	267
40	go	6	4	1	1	264
41	nogo	3	10	1	0	263
42	go	2	7	1	1	240
43	go	7	7	1	1	321
44	go	5	13	1	1	275
45	go	7	13	1	1	86
46	go	8	10	1	1	175
47	go	2	13	1	1	280
48	go	7	10	1	1	345
49	go	4	13	1	1	344
50	go	1	10	1	1	307
51	nogo	3	16	0	1	n/a
52	go	7	4	1	1	491
53	go	4	16	1	1	353
54	go	6	16	1	1	280
55	go	4	10	1	1	302
56	go	8	13	1	1	326
57	go	8	4	1	1	341
58	go	4	10	1	1	378
59	go	1	4	1	1	462
60	go	9	10	1	1	387
61	go	9	7	1	1	373
62	go	4	7	1	1	449
63	go	8	4	1	1	411
64	go	2	4	1	1	351
65	go	2	4	1	1	366
66	go	8	10	1	1	427
67	go	7	13	1	1	453
68	nogo	3	4	1	0	365
69	go	4	16	1	1	275
70	go	7	4	1	1	270
71	go	1	13	1	1	291
72	go	4	10	1	1	295
73	nogo	3	13	1	0	323
74	go	5	7	1	1	254
75	go	9	7	1	1	303
76	go	8	7	1	1	335
77	go	4	16	1	1	332
78	go	7	13	1	1	381
79	go	4	4	1	1	390
80	go	1	13	1	1	355
81	go	2	16	1	1	416
82	go	6	16	1	1	385
83	go	6	4	1	1	390
84	go	4	10	1	1	403
85	go	6	7	1	1	411
86	go	6	16	1	1	400
87	go	9	13	1	1	407
88	go	9	7	1	1	449
89	go	7	13	1	1	441
90	go	6	13	1	1	410
91	go	4	13	1	1	382
92	go	1	13	1	1	484
93	go	7	7	1	1	387
94	nogo	3	10	1	0	357
95	nogo	3	7	1	0	278
96	go	9	10	1	1	308
97	go	8	7	1	1	305
98	go	2	7	1	1	305
99	go	7	16	1	1	224
100	go	6	7	1	1	259
101	go	6	4	1	1	914
102	go	1	16	0	0	n/a
103	go	9	7	1	1	386
104	go	9	7	1	1	430
105	nogo	3	4	0	1	n/a
106	go	1	13	1	1	605
107	go	4	7	1	1	491
108	go	1	16	1	1	388
109	go	1	7	1	1	403
110	go	2	16	1	1	395
111	nogo	3	10	0	1	n/a
112	go	6	10	1	1	602
113	go	8	7	1	1	638
114	go	5	16	1	1	405
115	go	9	13	1	1	311
116	nogo	3	10	1	0	308
117	go	9	13	1	1	316
118	go	5	10	1	1	299
119	go	5	4	1	1	268
120	go	4	7	1	1	309
121	go	2	16	1	1	298
122	go	6	4	1	1	333
123	go	8	13	1	1	329
124	nogo	3	7	1	0	342
125	go	8	13	1	1	317
126	go	4	13	1	1	310
127	go	4	10	1	1	324
128	go	2	10	1	1	306
129	go	5	16	1	1	309
130	go	2	4	1	1	317
131	go	1	4	1	1	329
132	go	1	13	1	1	470
133	go	5	7	1	1	462
134	go	9	7	1	1	431
135	go	5	16	1	1	497
136	go	4	16	1	1	490
137	go	5	7	1	1	527
138	nogo	3	7	0	1	n/a
139	go	4	10	1	1	584
140	go	2	16	1	1	652
141	go	5	4	1	1	605
142	go	6	13	1	1	575
143	go	9	10	1	1	454
144	go	4	4	1	1	345
145	go	6	10	1	1	265
146	nogo	3	16	1	0	306
147	go	1	13	1	1	324
148	go	5	10	1	1	249
149	go	5	13	1	1	248
150	go	4	16	1	1	198
151	go	6	10	1	1	170
152	go	4	7	1	1	140
153	go	5	7	1	1	618
154	go	5	16	1	1	718
155	go	6	4	1	1	782
156	go	2	4	1	1	685
157	nogo	3	16	0	1	n/a
158	go	8	4	1	1	859
159	nogo	3	7	0	1	n/a
160	go	1	7	1	1	600
161	go	9	10	1	1	709
162	nogo	3	10	0	1	n/a
163	go	2	4	1	1	614
164	go	7	13	1	1	827
165	go	6	16	1	1	663
166	go	6	10	1	1	463
167	go	2	13	1	1	444
168	go	2	16	1	1	392
169	go	8	16	1	1	454
170	go	8	7	1	1	406
171	go	6	7	1	1	395
172	nogo	3	10	1	0	424
173	go	2	7	1	1	307
174	go	1	13	1	1	409
175	go	6	10	1	1	425
176	go	1	10	1	1	441
177	nogo	3	16	1	0	369
178	go	1	4	1	1	334
179	go	7	13	1	1	564
180	go	2	10	1	1	358
181	go	9	7	1	1	356
182	go	9	16	1	1	352
183	go	8	13	1	1	337
184	go	7	16	1	1	334
185	go	2	13	1	1	339
186	go	7	13	1	1	579
187	go	9	4	1	1	572
188	go	7	4	1	1	421
189	go	1	16	1	1	488
190	go	4	16	1	1	541
191	go	8	10	1	1	614
192	go	5	7	1	1	680
193	go	9	13	1	1	697
194	go	5	4	1	1	670
195	go	6	4	1	1	575
196	go	9	16	1	1	561
197	nogo	3	16	0	1	n/a
198	go	9	7	1	1	608
199	go	8	4	1	1	584
200	go	7	10	1	1	620
201	nogo	3	4	1	0	423
202	go	4	13	1	1	427
203	nogo	3	16	1	0	363
204	go	1	10	1	1	455
205	go	6	4	1	1	305
206	go	5	4	1	1	441
207	go	9	7	1	1	309
208	go	2	7	1	1	628
209	go	7	10	1	1	643
210	go	7	13	1	1	541
211	go	1	13	1	1	696
212	go	8	10	1	1	710
213	go	7	13	1	1	704
214	go	1	4	1	1	680
215	go	7	7	1	1	626
216	nogo	3	16	0	1	n/a
217	nogo	3	16	0	1	n/a
218	go	2	13	1	1	602
219	go	2	10	1	1	665
220	go	7	4	1	1	572
221	go	5	16	1	1	594
222	nogo	3	16	0	1	n/a
223	go	7	4	1	1	653
224	go	8	4	1	1	652
225	go	9	13	1	1	644
