trial	trial_type	stimulus	fontsize	response	accuracy	reactiontime
1	go	1	16	1	1	705
2	go	4	10	1	1	489
3	go	1	7	1	1	477
4	go	1	10	1	1	423
5	go	5	10	1	1	569
6	go	1	4	1	1	470
7	go	8	13	1	1	360
8	go	6	4	1	1	454
9	go	5	7	1	1	439
10	go	7	4	1	1	439
11	go	7	7	1	1	387
12	go	9	10	1	1	469
13	go	2	7	1	1	553
14	nogo	3	16	0	1	n/a
15	go	8	16	1	1	476
16	go	5	13	1	1	531
17	go	5	16	1	1	483
18	go	6	7	1	1	497
19	go	1	13	1	1	446
20	go	8	10	1	1	450
21	go	9	4	1	1	511
22	go	8	7	1	1	512
23	go	2	13	1	1	449
24	go	7	10	1	1	475
25	go	6	16	1	1	422
26	go	4	10	1	1	391
27	go	8	4	1	1	441
28	go	6	13	1	1	406
29	go	8	10	1	1	419
30	go	2	7	1	1	435
31	go	9	13	1	1	450
32	go	8	13	1	1	415
33	go	9	13	1	1	384
34	go	5	4	1	1	434
35	go	2	13	1	1	347
36	go	4	16	1	1	384
37	nogo	3	16	1	0	411
38	go	5	16	1	1	555
39	go	5	16	1	1	453
40	go	6	4	1	1	445
41	nogo	3	13	1	0	370
42	go	2	13	1	1	522
43	go	7	4	1	1	456
44	go	5	7	1	1	414
45	go	7	13	1	1	350
46	go	8	16	1	1	354
47	go	2	16	1	1	422
48	go	7	10	1	1	475
49	go	4	10	1	1	309
50	go	1	13	1	1	298
51	nogo	3	16	1	0	205
52	go	7	7	1	1	434
53	go	4	13	1	1	382
54	go	6	13	1	1	409
55	go	4	10	1	1	370
56	go	8	4	1	1	475
57	go	8	13	1	1	397
58	go	4	16	1	1	370
59	go	1	7	1	1	409
60	go	9	4	1	1	445
61	go	9	4	1	1	457
62	go	4	4	1	1	497
63	go	8	7	1	1	484
64	go	2	10	1	1	463
65	go	2	10	1	1	386
66	go	8	7	1	1	378
67	go	7	16	1	1	461
68	nogo	3	7	1	0	307
69	go	4	7	1	1	804
70	go	7	16	1	1	473
71	go	1	16	1	1	351
72	go	4	4	1	1	282
73	nogo	3	10	1	0	437
74	go	5	10	1	1	517
75	go	9	13	1	1	389
76	go	8	10	1	1	359
77	go	4	7	1	1	305
78	go	7	16	1	1	365
79	go	4	7	1	1	318
80	go	1	10	1	1	344
81	go	2	4	1	1	327
82	go	6	16	1	1	319
83	go	6	7	1	1	322
84	go	4	4	1	1	431
85	go	6	7	1	1	364
86	go	6	16	1	1	542
87	go	9	13	1	1	405
88	go	9	16	1	1	467
89	go	7	10	1	1	405
90	go	6	7	1	1	495
91	go	4	4	1	1	375
92	go	1	4	1	1	364
93	go	7	13	1	1	326
94	nogo	3	13	1	0	1073
95	nogo	3	7	0	1	n/a
96	go	9	4	1	1	453
97	go	8	4	1	1	606
98	go	2	4	1	1	484
99	go	7	13	1	1	480
100	go	6	7	1	1	376
101	go	6	10	1	1	390
102	go	1	4	1	1	383
103	go	9	10	1	1	314
104	go	9	16	1	1	300
105	nogo	3	16	1	0	378
106	go	1	4	1	1	820
107	go	4	16	1	1	518
108	go	1	10	1	1	357
109	go	1	10	1	1	314
110	go	2	16	1	1	363
111	nogo	3	10	1	0	378
112	go	6	16	1	1	416
113	go	8	10	1	1	337
114	go	5	10	1	1	140
115	go	9	4	1	1	415
116	nogo	3	13	1	0	380
117	go	9	4	1	1	411
118	go	5	7	1	1	336
119	go	5	13	1	1	196
120	go	4	13	1	1	279
121	go	2	10	1	1	381
122	go	6	7	1	1	248
123	go	8	16	1	1	579
124	nogo	3	13	1	0	335
125	go	8	16	1	1	52
126	go	4	13	1	1	534
127	go	4	10	1	1	427
128	go	2	16	1	1	371
129	go	5	4	1	1	411
130	go	2	7	1	1	365
131	go	1	13	1	1	391
132	go	1	4	1	1	383
133	go	5	10	1	1	421
134	go	9	4	1	1	457
135	go	5	10	1	1	450
136	go	4	10	1	1	477
137	go	5	10	1	1	501
138	nogo	3	4	1	0	495
139	go	4	16	1	1	577
140	go	2	10	1	1	547
141	go	5	13	1	1	407
142	go	6	7	1	1	375
143	go	9	16	1	1	376
144	go	4	16	1	1	395
145	go	6	4	1	1	408
146	nogo	3	16	1	0	367
147	go	1	7	1	1	408
148	go	5	16	1	1	397
149	go	5	7	1	1	413
150	go	4	13	1	1	405
151	go	6	10	1	1	432
152	go	4	13	1	1	389
153	go	5	10	1	1	405
154	go	5	10	1	1	362
155	go	6	4	1	1	361
156	go	2	16	1	1	332
157	nogo	3	4	1	0	1091
158	go	8	13	0	0	n/a
159	nogo	3	16	1	0	339
160	go	1	4	1	1	507
161	go	9	7	1	1	440
162	nogo	3	16	1	0	423
163	go	2	4	1	1	426
164	go	7	10	1	1	437
165	go	6	13	1	1	370
166	go	6	13	1	1	411
167	go	2	16	1	1	469
168	go	2	10	1	1	412
169	go	8	10	1	1	366
170	go	8	7	1	1	464
171	go	6	4	1	1	520
172	nogo	3	7	0	1	n/a
173	go	2	4	1	1	543
174	go	1	7	1	1	503
175	go	6	10	1	1	458
176	go	1	13	1	1	430
177	nogo	3	13	1	0	401
178	go	1	7	1	1	449
179	go	7	13	1	1	379
180	go	2	7	1	1	247
181	go	9	4	1	1	335
182	go	9	13	1	1	396
183	go	8	7	1	1	296
184	go	7	13	1	1	369
185	go	2	4	1	1	459
186	go	7	13	1	1	399
187	go	9	16	1	1	415
188	go	7	10	1	1	453
189	go	1	7	1	1	492
190	go	4	7	1	1	402
191	go	8	4	1	1	373
192	go	5	10	1	1	493
193	go	9	4	1	1	460
194	go	5	4	1	1	463
195	go	6	7	1	1	292
196	go	9	7	1	1	391
197	nogo	3	7	1	0	435
198	go	9	13	1	1	46
199	go	8	16	1	1	301
200	go	7	7	1	1	345
201	nogo	3	16	1	0	39
202	go	4	10	1	1	259
203	nogo	3	7	1	0	507
204	go	1	13	1	1	568
205	go	6	13	1	1	577
206	go	5	4	1	1	570
207	go	9	16	1	1	467
208	go	2	16	1	1	408
209	go	7	10	1	1	469
210	go	7	10	1	1	417
211	go	1	4	1	1	103
212	go	8	7	1	1	377
213	go	7	4	1	1	451
214	go	1	16	1	1	353
215	go	7	7	1	1	468
216	nogo	3	7	1	0	156
217	nogo	3	13	1	0	467
218	go	2	4	1	1	941
219	go	2	16	1	1	708
220	go	7	7	1	1	420
221	go	5	10	1	1	400
222	nogo	3	16	1	0	344
223	go	7	13	1	1	588
224	go	8	4	1	1	457
225	go	9	13pct	57	1	
