trial	trial_type	stimulus	fontsize	response	accuracy	reactiontime
1	go	1	13	1	1	729
2	go	4	4	1	1	401
3	go	1	16	1	1	328
4	go	1	10	1	1	364
5	go	5	4	1	1	403
6	go	1	7	1	1	371
7	go	8	16	1	1	374
8	go	6	4	1	1	380
9	go	5	10	1	1	326
10	go	7	7	1	1	363
11	go	7	7	1	1	356
12	go	9	16	1	1	371
13	go	2	4	1	1	466
14	nogo	3	13	1	0	378
15	go	8	13	1	1	348
16	go	5	4	1	1	341
17	go	5	16	1	1	304
18	go	6	4	1	1	303
19	go	1	10	1	1	341
20	go	8	7	1	1	310
21	go	9	13	1	1	305
22	go	8	10	1	1	318
23	go	2	10	1	1	401
24	go	7	7	1	1	335
25	go	6	7	1	1	318
26	go	4	16	1	1	332
27	go	8	4	1	1	395
28	go	6	16	1	1	303
29	go	8	13	1	1	373
30	go	2	10	1	1	417
31	go	9	4	1	1	358
32	go	8	16	1	1	407
33	go	9	10	1	1	382
34	go	5	4	1	1	354
35	go	2	7	1	1	391
36	go	4	7	1	1	338
37	nogo	3	7	0	1	n/a
38	go	5	4	1	1	752
39	go	5	16	1	1	353
40	go	6	10	1	1	307
41	nogo	3	13	1	0	359
42	go	2	13	1	1	401
43	go	7	4	1	1	317
44	go	5	4	1	1	312
45	go	7	13	1	1	303
46	go	8	13	1	1	275
47	go	2	13	1	1	358
48	go	7	4	1	1	321
49	go	4	10	1	1	369
50	go	1	10	1	1	331
51	nogo	3	16	0	1	n/a
52	go	7	10	1	1	737
53	go	4	7	1	1	306
54	go	6	10	1	1	265
55	go	4	10	1	1	304
56	go	8	13	1	1	279
57	go	8	4	1	1	299
58	go	4	4	1	1	353
59	go	1	13	1	1	390
60	go	9	16	1	1	360
61	go	9	7	1	1	308
62	go	4	13	1	1	308
63	go	8	10	1	1	351
64	go	2	7	1	1	395
65	go	2	4	1	1	383
66	go	8	16	1	1	361
67	go	7	7	1	1	363
68	nogo	3	13	0	1	n/a
69	go	4	16	1	1	489
70	go	7	7	1	1	365
71	go	1	13	1	1	312
72	go	4	10	1	1	385
73	nogo	3	10	1	0	342
74	go	5	10	1	1	336
75	go	9	16	1	1	306
76	go	8	13	1	1	306
77	go	4	7	1	1	518
78	go	7	4	1	1	322
79	go	4	4	1	1	350
80	go	1	13	1	1	352
81	go	2	16	1	1	304
82	go	6	16	1	1	344
83	go	6	10	1	1	364
84	go	4	16	1	1	328
85	go	6	7	1	1	416
86	go	6	16	1	1	352
87	go	9	7	1	1	346
88	go	9	16	1	1	383
89	go	7	13	1	1	352
90	go	6	4	1	1	344
91	go	4	13	1	1	393
92	go	1	16	1	1	377
93	go	7	7	1	1	340
94	nogo	3	10	1	0	302
95	nogo	3	16	1	0	318
96	go	9	10	1	1	459
97	go	8	16	1	1	303
98	go	2	7	1	1	354
99	go	7	13	1	1	335
100	go	6	7	1	1	289
101	go	6	16	1	1	307
102	go	1	7	1	1	344
103	go	9	13	1	1	315
104	go	9	16	1	1	269
105	nogo	3	16	0	1	n/a
106	go	1	16	1	1	515
107	go	4	7	1	1	307
108	go	1	7	1	1	313
109	go	1	13	1	1	304
110	go	2	4	1	1	544
111	nogo	3	4	0	1	n/a
112	go	6	4	1	1	722
113	go	8	4	1	1	263
114	go	5	16	1	1	317
115	go	9	4	1	1	318
116	nogo	3	10	0	1	n/a
117	go	9	7	1	1	629
118	go	5	13	1	1	307
119	go	5	4	1	1	387
120	go	4	7	1	1	425
121	go	2	10	1	1	371
122	go	6	10	1	1	409
123	go	8	7	1	1	379
124	nogo	3	13	0	1	n/a
125	go	8	7	1	1	414
126	go	4	10	1	1	311
127	go	4	4	1	1	332
128	go	2	4	1	1	279
129	go	5	13	1	1	347
130	go	2	13	1	1	367
131	go	1	10	1	1	315
132	go	1	13	1	1	308
133	go	5	13	1	1	331
134	go	9	16	1	1	360
135	go	5	13	1	1	337
136	go	4	10	1	1	344
137	go	5	10	1	1	324
138	nogo	3	10	0	1	n/a
139	go	4	4	1	1	345
140	go	2	16	1	1	220
141	go	5	13	1	1	212
142	go	6	7	1	1	188
143	go	9	10	1	1	316
144	go	4	16	1	1	276
145	go	6	4	1	1	282
146	nogo	3	13	1	0	253
147	go	1	4	1	1	329
148	go	5	16	1	1	377
149	go	5	13	1	1	313
150	go	4	7	1	1	387
151	go	6	4	1	1	339
152	go	4	16	1	1	356
153	go	5	10	1	1	375
154	go	5	7	1	1	351
155	go	6	13	1	1	341
156	go	2	4	1	1	392
157	nogo	3	13	1	0	802
158	go	8	7	1	1	816
159	nogo	3	10	0	1	n/a
160	go	1	16	1	1	787
161	go	9	10	1	1	351
162	nogo	3	16	1	0	341
163	go	2	13	1	1	593
164	go	7	7	1	1	395
165	go	6	4	1	1	386
166	go	6	16	1	1	379
167	go	2	4	1	1	417
168	go	2	16	1	1	410
169	go	8	4	1	1	379
170	go	8	7	1	1	416
171	go	6	13	1	1	387
172	nogo	3	10	0	1	n/a
173	go	2	7	1	1	469
174	go	1	13	1	1	381
175	go	6	10	1	1	316
176	go	1	16	1	1	339
177	nogo	3	7	1	0	306
178	go	1	10	1	1	464
179	go	7	16	1	1	348
180	go	2	7	1	1	274
181	go	9	4	1	1	273
182	go	9	7	1	1	338
183	go	8	13	1	1	302
184	go	7	10	1	1	413
185	go	2	7	1	1	297
186	go	7	10	1	1	307
187	go	9	4	1	1	315
188	go	7	10	1	1	300
189	go	1	13	1	1	335
190	go	4	16	1	1	315
191	go	8	4	1	1	327
192	go	5	10	1	1	252
193	go	9	13	1	1	291
194	go	5	16	1	1	302
195	go	6	4	1	1	253
196	go	9	10	1	1	265
197	nogo	3	4	1	0	321
198	go	9	16	1	1	336
199	go	8	4	1	1	328
200	go	7	4	1	1	321
201	nogo	3	10	1	0	313
202	go	4	16	1	1	351
203	nogo	3	4	1	0	321
204	go	1	13	1	1	664
205	go	6	4	1	1	390
206	go	5	16	1	1	343
207	go	9	13	1	1	353
208	go	2	13	1	1	492
209	go	7	10	1	1	360
210	go	7	7	1	1	353
211	go	1	4	1	1	379
212	go	8	16	1	1	315
213	go	7	13	1	1	307
214	go	1	7	1	1	292
215	go	7	10	1	1	325
216	nogo	3	7	1	0	375
217	nogo	3	10	1	0	437
218	go	2	7	1	1	429
219	go	2	7	1	1	300
220	go	7	7	1	1	302
221	go	5	13	1	1	300
222	nogo	3	10	1	0	303
223	go	7	16	1	1	368
224	go	8	16	1	1	383
225	go	9	7	1	1	388
