participant_id	group	session	instOrdr	instSctn	itmOrdr	inst	itemID	response	score	position	responseTime	type
7001	1	pre	1	2	2	NIH_Toolbox_List_Sorting_Working_Memory_Test_Age_7+_v2.1	LS1LAP1	1	1	1	0	practice
7001	1	pre	1	2	4	NIH_Toolbox_List_Sorting_Working_Memory_Test_Age_7+_v2.1	LS1LAP2	1	1	2	0	practice
7001	1	pre	1	4	1	NIH_Toolbox_List_Sorting_Working_Memory_Test_Age_7+_v2.1	WMLS1L3T1	1	4	3	0	main
7001	1	pre	1	4	5	NIH_Toolbox_List_Sorting_Working_Memory_Test_Age_7+_v2.1	WMLS1L4T2	1	2	4	0	main
7001	1	pre	1	4	7	NIH_Toolbox_List_Sorting_Working_Memory_Test_Age_7+_v2.1	WMLS1L5T2	1	2	5	0	main
7001	1	pre	1	4	9	NIH_Toolbox_List_Sorting_Working_Memory_Test_Age_7+_v2.1	WMLS1L6T3	1	2	6	0	main
7001	1	pre	1	4	11	NIH_Toolbox_List_Sorting_Working_Memory_Test_Age_7+_v2.1	WMLS1L7T1	2	0	7	0	main
7001	1	pre	1	4	12	NIH_Toolbox_List_Sorting_Working_Memory_Test_Age_7+_v2.1	WMLS1L7T2	1	1	8	0	main
7001	1	pre	1	4	13	NIH_Toolbox_List_Sorting_Working_Memory_Test_Age_7+_v2.1	WMLS1L8T1	2	0	9	0	main
7001	1	pre	1	4	14	NIH_Toolbox_List_Sorting_Working_Memory_Test_Age_7+_v2.1	WMLS1L8T2	2	0	10	0	main
7001	1	pre	1	5	2	NIH_Toolbox_List_Sorting_Working_Memory_Test_Age_7+_v2.1	LS2LAP1	1	1	11	0	practice
7001	1	pre	1	5	4	NIH_Toolbox_List_Sorting_Working_Memory_Test_Age_7+_v2.1	LS2LAP2	1	1	12	0	practice
7001	1	pre	1	7	1	NIH_Toolbox_List_Sorting_Working_Memory_Test_Age_7+_v2.1	WMLS2L03A	1	2	13	0	main
7001	1	pre	1	7	3	NIH_Toolbox_List_Sorting_Working_Memory_Test_Age_7+_v2.1	WMLS2L04T2	1	2	14	0	main
7001	1	pre	1	7	5	NIH_Toolbox_List_Sorting_Working_Memory_Test_Age_7+_v2.1	WMLS2L05T3	1	2	15	0	main
7001	1	pre	1	7	7	NIH_Toolbox_List_Sorting_Working_Memory_Test_Age_7+_v2.1	WMLS2L04A	1	2	16	0	main
7001	1	pre	1	7	9	NIH_Toolbox_List_Sorting_Working_Memory_Test_Age_7+_v2.1	WMLS2L07T3	1	2	17	0	main
7001	1	pre	1	7	11	NIH_Toolbox_List_Sorting_Working_Memory_Test_Age_7+_v2.1	WMLS2L08T1	2	0	18	0	main
7001	1	pre	1	7	12	NIH_Toolbox_List_Sorting_Working_Memory_Test_Age_7+_v2.1	WMLS2L06B	2	0	19	0	main
7001	1	pre	2	1	1	NIH_Toolbox_Pattern_Comparison_Processing_Speed_Test_Age_7+_Practice_v2.1	PSPAC_INSTR	n/a	n/a	n/a	n/a	instruction
7001	1	pre	2	3	1	NIH_Toolbox_Pattern_Comparison_Processing_Speed_Test_Age_7+_Practice_v2.1	PSPAC_INTRO_INSTR	-1	n/a	1	n/a	instruction
7001	1	pre	2	4	1	NIH_Toolbox_Pattern_Comparison_Processing_Speed_Test_Age_7+_Practice_v2.1	PSPACPA1	1	1	2	n/a	practice
7001	1	pre	2	4	2	NIH_Toolbox_Pattern_Comparison_Processing_Speed_Test_Age_7+_Practice_v2.1	PSPACPA2	2	1	3	n/a	practice
7001	1	pre	2	5	1	NIH_Toolbox_Pattern_Comparison_Processing_Speed_Test_Age_7+_Practice_v2.1	PSPACPA3	2	1	4	n/a	practice
7001	1	pre	2	6	1	NIH_Toolbox_Pattern_Comparison_Processing_Speed_Test_Age_7+_Practice_v2.1	PSPACPA4	1	1	5	n/a	practice
7001	1	pre	2	6	2	NIH_Toolbox_Pattern_Comparison_Processing_Speed_Test_Age_7+_Practice_v2.1	PSPACPA5	2	1	6	n/a	practice
7001	1	pre	2	6	3	NIH_Toolbox_Pattern_Comparison_Processing_Speed_Test_Age_7+_Practice_v2.1	PSPACPA6	1	1	7	n/a	practice
7001	1	pre	2	9	1	NIH_Toolbox_Pattern_Comparison_Processing_Speed_Test_Age_7+_Practice_v2.1	PSPAC_TRANSITION	-1	n/a	8	n/a	practice
7001	1	pre	3	1	1	NIH_Toolbox_Pattern_Comparison_Processing_Speed_Test_Age_7+_v2.1	PSPAC003	1	1	1	6.165399	main
7001	1	pre	3	1	2	NIH_Toolbox_Pattern_Comparison_Processing_Speed_Test_Age_7+_v2.1	PSPAC013	2	1	2	2.610493	main
7001	1	pre	3	1	3	NIH_Toolbox_Pattern_Comparison_Processing_Speed_Test_Age_7+_v2.1	PSPAC005	1	1	3	3.976662	main
7001	1	pre	3	1	4	NIH_Toolbox_Pattern_Comparison_Processing_Speed_Test_Age_7+_v2.1	PSPAC002	1	1	4	4.533221	main
7001	1	pre	3	1	5	NIH_Toolbox_Pattern_Comparison_Processing_Speed_Test_Age_7+_v2.1	PSPAC021	2	1	5	2.304884	main
7001	1	pre	3	1	6	NIH_Toolbox_Pattern_Comparison_Processing_Speed_Test_Age_7+_v2.1	PSPAC006	1	1	6	3.135948	main
7001	1	pre	3	1	7	NIH_Toolbox_Pattern_Comparison_Processing_Speed_Test_Age_7+_v2.1	PSPAC023	2	1	7	2.274797	main
7001	1	pre	3	1	8	NIH_Toolbox_Pattern_Comparison_Processing_Speed_Test_Age_7+_v2.1	PSPAC019	2	1	8	1.980706	main
7001	1	pre	3	1	9	NIH_Toolbox_Pattern_Comparison_Processing_Speed_Test_Age_7+_v2.1	PSPAC007	1	1	9	4.207634	main
7001	1	pre	3	1	10	NIH_Toolbox_Pattern_Comparison_Processing_Speed_Test_Age_7+_v2.1	PSPAC029	2	1	10	3.224215	main
7001	1	pre	3	1	11	NIH_Toolbox_Pattern_Comparison_Processing_Speed_Test_Age_7+_v2.1	PSPAC055	1	1	11	3.886215	main
7001	1	pre	3	1	12	NIH_Toolbox_Pattern_Comparison_Processing_Speed_Test_Age_7+_v2.1	PSPAC018	1	1	12	4.849333	main
7001	1	pre	3	1	13	NIH_Toolbox_Pattern_Comparison_Processing_Speed_Test_Age_7+_v2.1	PSPAC031	2	1	13	2.155831	main
7001	1	pre	3	1	14	NIH_Toolbox_Pattern_Comparison_Processing_Speed_Test_Age_7+_v2.1	PSPAC030	2	1	14	1.768003	main
7001	1	pre	3	1	15	NIH_Toolbox_Pattern_Comparison_Processing_Speed_Test_Age_7+_v2.1	PSPAC061	2	1	15	2.796256	main
7001	1	pre	3	1	16	NIH_Toolbox_Pattern_Comparison_Processing_Speed_Test_Age_7+_v2.1	PSPAC024	1	1	16	3.761946	main
7001	1	pre	3	1	17	NIH_Toolbox_Pattern_Comparison_Processing_Speed_Test_Age_7+_v2.1	PSPAC028	1	1	17	4.509149	main
7001	1	pre	3	1	18	NIH_Toolbox_Pattern_Comparison_Processing_Speed_Test_Age_7+_v2.1	PSPAC039	2	1	18	2.095963	main
7001	1	pre	3	1	19	NIH_Toolbox_Pattern_Comparison_Processing_Speed_Test_Age_7+_v2.1	PSPAC113	1	1	19	3.711308	main
7001	1	pre	3	1	20	NIH_Toolbox_Pattern_Comparison_Processing_Speed_Test_Age_7+_v2.1	PSPAC253	2	1	20	1.663343	main
7001	1	pre	3	1	21	NIH_Toolbox_Pattern_Comparison_Processing_Speed_Test_Age_7+_v2.1	PSPAC036	1	1	21	4.301085	main
7001	1	pre	3	1	22	NIH_Toolbox_Pattern_Comparison_Processing_Speed_Test_Age_7+_v2.1	PSPAC037	1	1	22	5.121706	main
7001	1	pre	3	1	23	NIH_Toolbox_Pattern_Comparison_Processing_Speed_Test_Age_7+_v2.1	PSPAC041	1	1	23	3.894992	main
7001	1	pre	3	1	24	NIH_Toolbox_Pattern_Comparison_Processing_Speed_Test_Age_7+_v2.1	PSPAC095	2	1	24	1.97904	main
7001	1	pre	3	1	25	NIH_Toolbox_Pattern_Comparison_Processing_Speed_Test_Age_7+_v2.1	PSPAC110	2	1	25	2.232154	main
7001	1	pre	3	1	26	NIH_Toolbox_Pattern_Comparison_Processing_Speed_Test_Age_7+_v2.1	PSPAC138	2	1	26	1.369127	main
7001	1	pre	3	1	27	NIH_Toolbox_Pattern_Comparison_Processing_Speed_Test_Age_7+_v2.1	PSPAC043	1	1	27	4.60889	main
7001	1	pre	4	13	1	NIH_Toolbox_Flanker_Inhibitory_Control_and_Attention_Test_Age_12+_v2.1	FLANKER_ARROW_PRAC1	1	1	1	1.52313	practice
7001	1	pre	4	13	2	NIH_Toolbox_Flanker_Inhibitory_Control_and_Attention_Test_Age_12+_v2.1	FLANKER_ARROW_PRAC2	2	1	2	0.977043	practice
7001	1	pre	4	13	3	NIH_Toolbox_Flanker_Inhibitory_Control_and_Attention_Test_Age_12+_v2.1	FLANKER_ARROW_PRAC3	1	1	3	1.82766	practice
7001	1	pre	4	13	4	NIH_Toolbox_Flanker_Inhibitory_Control_and_Attention_Test_Age_12+_v2.1	FLANKER_ARROW_PRAC4	2	1	4	1.218095	practice
7001	1	pre	4	19	1	NIH_Toolbox_Flanker_Inhibitory_Control_and_Attention_Test_Age_12+_v2.1	FLANKER_ARROW_CONGRUENT1	1	1	5	0.92162	main
7001	1	pre	4	19	2	NIH_Toolbox_Flanker_Inhibitory_Control_and_Attention_Test_Age_12+_v2.1	FLANKER_ARROW_CONGRUENT2	2	1	6	0.893201	main
7001	1	pre	4	19	3	NIH_Toolbox_Flanker_Inhibitory_Control_and_Attention_Test_Age_12+_v2.1	FLANKER_ARROW_INCONGRUENT3	2	1	7	1.043997	main
7001	1	pre	4	19	4	NIH_Toolbox_Flanker_Inhibitory_Control_and_Attention_Test_Age_12+_v2.1	FLANKER_ARROW_CONGRUENT4	2	1	8	1.102738	main
7001	1	pre	4	19	5	NIH_Toolbox_Flanker_Inhibitory_Control_and_Attention_Test_Age_12+_v2.1	FLANKER_ARROW_INCONGRUENT5	2	1	9	0.933089	main
7001	1	pre	4	19	6	NIH_Toolbox_Flanker_Inhibitory_Control_and_Attention_Test_Age_12+_v2.1	FLANKER_ARROW_CONGRUENT6	2	1	10	0.887193	main
7001	1	pre	4	19	7	NIH_Toolbox_Flanker_Inhibitory_Control_and_Attention_Test_Age_12+_v2.1	FLANKER_ARROW_INCONGRUENT7	1	1	11	0.83519	main
7001	1	pre	4	19	8	NIH_Toolbox_Flanker_Inhibitory_Control_and_Attention_Test_Age_12+_v2.1	FLANKER_ARROW_CONGRUENT8	1	1	12	0.747194	main
7001	1	pre	4	19	9	NIH_Toolbox_Flanker_Inhibitory_Control_and_Attention_Test_Age_12+_v2.1	FLANKER_ARROW_CONGRUENT9	1	1	13	0.765217	main
7001	1	pre	4	19	10	NIH_Toolbox_Flanker_Inhibitory_Control_and_Attention_Test_Age_12+_v2.1	FLANKER_ARROW_INCONGRUENT10	1	1	14	1.072274	main
7001	1	pre	4	19	11	NIH_Toolbox_Flanker_Inhibitory_Control_and_Attention_Test_Age_12+_v2.1	FLANKER_ARROW_CONGRUENT11	1	1	15	0.639397	main
7001	1	pre	4	19	12	NIH_Toolbox_Flanker_Inhibitory_Control_and_Attention_Test_Age_12+_v2.1	FLANKER_ARROW_CONGRUENT12	2	1	16	0.741941	main
7001	1	pre	4	19	13	NIH_Toolbox_Flanker_Inhibitory_Control_and_Attention_Test_Age_12+_v2.1	FLANKER_ARROW_INCONGRUENT13	2	1	17	0.878488	main
7001	1	pre	4	19	14	NIH_Toolbox_Flanker_Inhibitory_Control_and_Attention_Test_Age_12+_v2.1	FLANKER_ARROW_CONGRUENT14	2	1	18	0.848593	main
7001	1	pre	4	19	15	NIH_Toolbox_Flanker_Inhibitory_Control_and_Attention_Test_Age_12+_v2.1	FLANKER_ARROW_INCONGRUENT15	2	1	19	0.981251	main
7001	1	pre	4	19	16	NIH_Toolbox_Flanker_Inhibitory_Control_and_Attention_Test_Age_12+_v2.1	FLANKER_ARROW_CONGRUENT16	1	1	20	0.912037	main
7001	1	pre	4	19	17	NIH_Toolbox_Flanker_Inhibitory_Control_and_Attention_Test_Age_12+_v2.1	FLANKER_ARROW_INCONGRUENT17	1	1	21	0.668357	main
7001	1	pre	4	19	18	NIH_Toolbox_Flanker_Inhibitory_Control_and_Attention_Test_Age_12+_v2.1	FLANKER_ARROW_CONGRUENT18	2	1	22	0.74565	main
7001	1	pre	4	19	19	NIH_Toolbox_Flanker_Inhibitory_Control_and_Attention_Test_Age_12+_v2.1	FLANKER_ARROW_CONGRUENT19	1	1	23	0.662513	main
7001	1	pre	4	19	20	NIH_Toolbox_Flanker_Inhibitory_Control_and_Attention_Test_Age_12+_v2.1	FLANKER_ARROW_INCONGRUENT20	2	1	24	0.888261	main
