participant_id	group	session	instOrdr	instSctn	itmOrdr	inst	itemID	response	score	position	responseTime	type
8023	2	post	1	2	2	NIH_Toolbox_List_Sorting_Working_Memory_Test_Age_7+_v2.1	LS1LAP1	1	1	1	0	practice
8023	2	post	1	2	4	NIH_Toolbox_List_Sorting_Working_Memory_Test_Age_7+_v2.1	LS1LAP2	1	1	2	0	practice
8023	2	post	1	4	1	NIH_Toolbox_List_Sorting_Working_Memory_Test_Age_7+_v2.1	WMLS1L3T1	1	4	3	0	main
8023	2	post	1	4	5	NIH_Toolbox_List_Sorting_Working_Memory_Test_Age_7+_v2.1	WMLS1L4T2	1	2	4	0	main
8023	2	post	1	4	7	NIH_Toolbox_List_Sorting_Working_Memory_Test_Age_7+_v2.1	WMLS1L5T2	1	2	5	0	main
8023	2	post	1	4	9	NIH_Toolbox_List_Sorting_Working_Memory_Test_Age_7+_v2.1	WMLS1L6T3	1	2	6	0	main
8023	2	post	1	4	11	NIH_Toolbox_List_Sorting_Working_Memory_Test_Age_7+_v2.1	WMLS1L7T1	1	2	7	0	main
8023	2	post	1	4	13	NIH_Toolbox_List_Sorting_Working_Memory_Test_Age_7+_v2.1	WMLS1L8T1	2	0	8	0	main
8023	2	post	1	4	14	NIH_Toolbox_List_Sorting_Working_Memory_Test_Age_7+_v2.1	WMLS1L8T2	2	0	9	0	main
8023	2	post	1	5	2	NIH_Toolbox_List_Sorting_Working_Memory_Test_Age_7+_v2.1	LS2LAP1	1	1	10	0	practice
8023	2	post	1	5	4	NIH_Toolbox_List_Sorting_Working_Memory_Test_Age_7+_v2.1	LS2LAP2	1	1	11	0	practice
8023	2	post	1	7	1	NIH_Toolbox_List_Sorting_Working_Memory_Test_Age_7+_v2.1	WMLS2L03A	1	2	12	0	main
8023	2	post	1	7	3	NIH_Toolbox_List_Sorting_Working_Memory_Test_Age_7+_v2.1	WMLS2L04T2	1	2	13	0	main
8023	2	post	1	7	5	NIH_Toolbox_List_Sorting_Working_Memory_Test_Age_7+_v2.1	WMLS2L05T3	1	2	14	0	main
8023	2	post	1	7	7	NIH_Toolbox_List_Sorting_Working_Memory_Test_Age_7+_v2.1	WMLS2L04A	2	0	15	0	main
8023	2	post	1	7	8	NIH_Toolbox_List_Sorting_Working_Memory_Test_Age_7+_v2.1	WMLS2L06T3	2	0	16	0	main
8023	2	post	2	1	1	NIH_Toolbox_Pattern_Comparison_Processing_Speed_Test_Age_7+_Practice_v2.1	PSPAC_INSTR	n/a	n/a	n/a	n/a	instruction
8023	2	post	2	3	1	NIH_Toolbox_Pattern_Comparison_Processing_Speed_Test_Age_7+_Practice_v2.1	PSPAC_INTRO_INSTR	-1	n/a	1	n/a	instruction
8023	2	post	2	4	1	NIH_Toolbox_Pattern_Comparison_Processing_Speed_Test_Age_7+_Practice_v2.1	PSPACPA1	1	1	2	n/a	practice
8023	2	post	2	4	2	NIH_Toolbox_Pattern_Comparison_Processing_Speed_Test_Age_7+_Practice_v2.1	PSPACPA2	2	1	3	n/a	practice
8023	2	post	2	5	1	NIH_Toolbox_Pattern_Comparison_Processing_Speed_Test_Age_7+_Practice_v2.1	PSPACPA3	2	1	4	n/a	practice
8023	2	post	2	6	1	NIH_Toolbox_Pattern_Comparison_Processing_Speed_Test_Age_7+_Practice_v2.1	PSPACPA4	1	1	5	n/a	practice
8023	2	post	2	6	2	NIH_Toolbox_Pattern_Comparison_Processing_Speed_Test_Age_7+_Practice_v2.1	PSPACPA5	2	1	6	n/a	practice
8023	2	post	2	6	3	NIH_Toolbox_Pattern_Comparison_Processing_Speed_Test_Age_7+_Practice_v2.1	PSPACPA6	1	1	7	n/a	practice
8023	2	post	2	9	1	NIH_Toolbox_Pattern_Comparison_Processing_Speed_Test_Age_7+_Practice_v2.1	PSPAC_TRANSITION	-1	n/a	8	n/a	practice
8023	2	post	3	1	1	NIH_Toolbox_Pattern_Comparison_Processing_Speed_Test_Age_7+_v2.1	PSPAC003	1	1	1	2.194762	main
8023	2	post	3	1	2	NIH_Toolbox_Pattern_Comparison_Processing_Speed_Test_Age_7+_v2.1	PSPAC013	2	1	2	1.828384	main
8023	2	post	3	1	3	NIH_Toolbox_Pattern_Comparison_Processing_Speed_Test_Age_7+_v2.1	PSPAC005	1	1	3	1.801987	main
8023	2	post	3	1	4	NIH_Toolbox_Pattern_Comparison_Processing_Speed_Test_Age_7+_v2.1	PSPAC002	1	1	4	3.811912	main
8023	2	post	3	1	5	NIH_Toolbox_Pattern_Comparison_Processing_Speed_Test_Age_7+_v2.1	PSPAC021	2	1	5	1.987663	main
8023	2	post	3	1	6	NIH_Toolbox_Pattern_Comparison_Processing_Speed_Test_Age_7+_v2.1	PSPAC006	1	1	6	3.831415	main
8023	2	post	3	1	7	NIH_Toolbox_Pattern_Comparison_Processing_Speed_Test_Age_7+_v2.1	PSPAC023	2	1	7	2.137006	main
8023	2	post	3	1	8	NIH_Toolbox_Pattern_Comparison_Processing_Speed_Test_Age_7+_v2.1	PSPAC019	2	1	8	1.611238	main
8023	2	post	3	1	9	NIH_Toolbox_Pattern_Comparison_Processing_Speed_Test_Age_7+_v2.1	PSPAC007	1	1	9	2.842515	main
8023	2	post	3	1	10	NIH_Toolbox_Pattern_Comparison_Processing_Speed_Test_Age_7+_v2.1	PSPAC029	2	1	10	1.833414	main
8023	2	post	3	1	11	NIH_Toolbox_Pattern_Comparison_Processing_Speed_Test_Age_7+_v2.1	PSPAC055	1	1	11	1.767375	main
8023	2	post	3	1	12	NIH_Toolbox_Pattern_Comparison_Processing_Speed_Test_Age_7+_v2.1	PSPAC018	1	1	12	1.975162	main
8023	2	post	3	1	13	NIH_Toolbox_Pattern_Comparison_Processing_Speed_Test_Age_7+_v2.1	PSPAC031	2	1	13	1.635336	main
8023	2	post	3	1	14	NIH_Toolbox_Pattern_Comparison_Processing_Speed_Test_Age_7+_v2.1	PSPAC030	2	1	14	1.534679	main
8023	2	post	3	1	15	NIH_Toolbox_Pattern_Comparison_Processing_Speed_Test_Age_7+_v2.1	PSPAC061	2	1	15	1.8138	main
8023	2	post	3	1	16	NIH_Toolbox_Pattern_Comparison_Processing_Speed_Test_Age_7+_v2.1	PSPAC024	1	1	16	1.735163	main
8023	2	post	3	1	17	NIH_Toolbox_Pattern_Comparison_Processing_Speed_Test_Age_7+_v2.1	PSPAC028	1	1	17	1.945867	main
8023	2	post	3	1	18	NIH_Toolbox_Pattern_Comparison_Processing_Speed_Test_Age_7+_v2.1	PSPAC039	2	1	18	2.048512	main
8023	2	post	3	1	19	NIH_Toolbox_Pattern_Comparison_Processing_Speed_Test_Age_7+_v2.1	PSPAC113	1	1	19	2.111419	main
8023	2	post	3	1	20	NIH_Toolbox_Pattern_Comparison_Processing_Speed_Test_Age_7+_v2.1	PSPAC253	2	1	20	1.702145	main
8023	2	post	3	1	21	NIH_Toolbox_Pattern_Comparison_Processing_Speed_Test_Age_7+_v2.1	PSPAC036	1	1	21	1.881362	main
8023	2	post	3	1	22	NIH_Toolbox_Pattern_Comparison_Processing_Speed_Test_Age_7+_v2.1	PSPAC037	1	1	22	1.884146	main
8023	2	post	3	1	23	NIH_Toolbox_Pattern_Comparison_Processing_Speed_Test_Age_7+_v2.1	PSPAC041	1	1	23	1.927576	main
8023	2	post	3	1	24	NIH_Toolbox_Pattern_Comparison_Processing_Speed_Test_Age_7+_v2.1	PSPAC095	2	1	24	1.892192	main
8023	2	post	3	1	25	NIH_Toolbox_Pattern_Comparison_Processing_Speed_Test_Age_7+_v2.1	PSPAC110	2	1	25	1.497394	main
8023	2	post	3	1	26	NIH_Toolbox_Pattern_Comparison_Processing_Speed_Test_Age_7+_v2.1	PSPAC138	2	1	26	1.313552	main
8023	2	post	3	1	27	NIH_Toolbox_Pattern_Comparison_Processing_Speed_Test_Age_7+_v2.1	PSPAC043	1	1	27	2.16844	main
8023	2	post	3	1	28	NIH_Toolbox_Pattern_Comparison_Processing_Speed_Test_Age_7+_v2.1	PSPAC032	2	1	28	1.83319	main
8023	2	post	3	1	29	NIH_Toolbox_Pattern_Comparison_Processing_Speed_Test_Age_7+_v2.1	PSPAC047	1	1	29	1.783873	main
8023	2	post	3	1	30	NIH_Toolbox_Pattern_Comparison_Processing_Speed_Test_Age_7+_v2.1	PSPAC004	2	1	30	1.916549	main
8023	2	post	3	1	31	NIH_Toolbox_Pattern_Comparison_Processing_Speed_Test_Age_7+_v2.1	PSPAC044	2	1	31	1.510117	main
8023	2	post	3	1	32	NIH_Toolbox_Pattern_Comparison_Processing_Speed_Test_Age_7+_v2.1	PSPAC212	1	1	32	1.718293	main
8023	2	post	3	1	33	NIH_Toolbox_Pattern_Comparison_Processing_Speed_Test_Age_7+_v2.1	PSPAC016	2	1	33	1.373495	main
8023	2	post	3	1	34	NIH_Toolbox_Pattern_Comparison_Processing_Speed_Test_Age_7+_v2.1	PSPAC014	1	1	34	1.796205	main
8023	2	post	3	1	35	NIH_Toolbox_Pattern_Comparison_Processing_Speed_Test_Age_7+_v2.1	PSPAC052	2	1	35	1.263906	main
8023	2	post	3	1	36	NIH_Toolbox_Pattern_Comparison_Processing_Speed_Test_Age_7+_v2.1	PSPAC056	1	1	36	3.426674	main
8023	2	post	3	1	37	NIH_Toolbox_Pattern_Comparison_Processing_Speed_Test_Age_7+_v2.1	PSPAC008	1	1	37	5.238587	main
8023	2	post	3	1	38	NIH_Toolbox_Pattern_Comparison_Processing_Speed_Test_Age_7+_v2.1	PSPAC058	2	1	38	1.656483	main
8023	2	post	3	1	39	NIH_Toolbox_Pattern_Comparison_Processing_Speed_Test_Age_7+_v2.1	PSPAC059	1	1	39	1.512092	main
8023	2	post	3	1	40	NIH_Toolbox_Pattern_Comparison_Processing_Speed_Test_Age_7+_v2.1	PSPAC116	2	1	40	1.290041	main
8023	2	post	3	1	41	NIH_Toolbox_Pattern_Comparison_Processing_Speed_Test_Age_7+_v2.1	PSPAC051	2	1	41	1.774433	main
8023	2	post	3	1	42	NIH_Toolbox_Pattern_Comparison_Processing_Speed_Test_Age_7+_v2.1	PSPAC053	2	1	42	1.529884	main
8023	2	post	3	1	43	NIH_Toolbox_Pattern_Comparison_Processing_Speed_Test_Age_7+_v2.1	PSPAC141	1	1	43	2.022998	main
8023	2	post	4	13	1	NIH_Toolbox_Flanker_Inhibitory_Control_and_Attention_Test_Age_12+_v2.1	FLANKER_ARROW_PRAC1	1	1	1	1.053029	practice
8023	2	post	4	13	2	NIH_Toolbox_Flanker_Inhibitory_Control_and_Attention_Test_Age_12+_v2.1	FLANKER_ARROW_PRAC2	2	1	2	1.071583	practice
8023	2	post	4	13	3	NIH_Toolbox_Flanker_Inhibitory_Control_and_Attention_Test_Age_12+_v2.1	FLANKER_ARROW_PRAC3	1	1	3	1.30441	practice
8023	2	post	4	13	4	NIH_Toolbox_Flanker_Inhibitory_Control_and_Attention_Test_Age_12+_v2.1	FLANKER_ARROW_PRAC4	2	1	4	0.884035	practice
8023	2	post	4	19	1	NIH_Toolbox_Flanker_Inhibitory_Control_and_Attention_Test_Age_12+_v2.1	FLANKER_ARROW_CONGRUENT1	1	1	5	1.146806	main
8023	2	post	4	19	2	NIH_Toolbox_Flanker_Inhibitory_Control_and_Attention_Test_Age_12+_v2.1	FLANKER_ARROW_CONGRUENT2	2	1	6	0.727214	main
8023	2	post	4	19	3	NIH_Toolbox_Flanker_Inhibitory_Control_and_Attention_Test_Age_12+_v2.1	FLANKER_ARROW_INCONGRUENT3	2	1	7	2.524728	main
8023	2	post	4	19	4	NIH_Toolbox_Flanker_Inhibitory_Control_and_Attention_Test_Age_12+_v2.1	FLANKER_ARROW_CONGRUENT4	2	1	8	0.924646	main
8023	2	post	4	19	5	NIH_Toolbox_Flanker_Inhibitory_Control_and_Attention_Test_Age_12+_v2.1	FLANKER_ARROW_INCONGRUENT5	2	1	9	1.09705	main
8023	2	post	4	19	6	NIH_Toolbox_Flanker_Inhibitory_Control_and_Attention_Test_Age_12+_v2.1	FLANKER_ARROW_CONGRUENT6	2	1	10	0.789754	main
8023	2	post	4	19	7	NIH_Toolbox_Flanker_Inhibitory_Control_and_Attention_Test_Age_12+_v2.1	FLANKER_ARROW_INCONGRUENT7	1	1	11	1.104747	main
8023	2	post	4	19	8	NIH_Toolbox_Flanker_Inhibitory_Control_and_Attention_Test_Age_12+_v2.1	FLANKER_ARROW_CONGRUENT8	1	1	12	1.032589	main
8023	2	post	4	19	9	NIH_Toolbox_Flanker_Inhibitory_Control_and_Attention_Test_Age_12+_v2.1	FLANKER_ARROW_CONGRUENT9	1	1	13	0.87561	main
8023	2	post	4	19	10	NIH_Toolbox_Flanker_Inhibitory_Control_and_Attention_Test_Age_12+_v2.1	FLANKER_ARROW_INCONGRUENT10	1	1	14	1.028414	main
8023	2	post	4	19	11	NIH_Toolbox_Flanker_Inhibitory_Control_and_Attention_Test_Age_12+_v2.1	FLANKER_ARROW_CONGRUENT11	1	1	15	0.91403	main
8023	2	post	4	19	12	NIH_Toolbox_Flanker_Inhibitory_Control_and_Attention_Test_Age_12+_v2.1	FLANKER_ARROW_CONGRUENT12	2	1	16	0.883417	main
8023	2	post	4	19	13	NIH_Toolbox_Flanker_Inhibitory_Control_and_Attention_Test_Age_12+_v2.1	FLANKER_ARROW_INCONGRUENT13	2	1	17	1.008782	main
8023	2	post	4	19	14	NIH_Toolbox_Flanker_Inhibitory_Control_and_Attention_Test_Age_12+_v2.1	FLANKER_ARROW_CONGRUENT14	2	1	18	0.911465	main
8023	2	post	4	19	15	NIH_Toolbox_Flanker_Inhibitory_Control_and_Attention_Test_Age_12+_v2.1	FLANKER_ARROW_INCONGRUENT15	2	1	19	1.201777	main
8023	2	post	4	19	16	NIH_Toolbox_Flanker_Inhibitory_Control_and_Attention_Test_Age_12+_v2.1	FLANKER_ARROW_CONGRUENT16	1	1	20	0.973644	main
8023	2	post	4	19	17	NIH_Toolbox_Flanker_Inhibitory_Control_and_Attention_Test_Age_12+_v2.1	FLANKER_ARROW_INCONGRUENT17	1	1	21	0.996371	main
8023	2	post	4	19	18	NIH_Toolbox_Flanker_Inhibitory_Control_and_Attention_Test_Age_12+_v2.1	FLANKER_ARROW_CONGRUENT18	2	1	22	0.830614	main
8023	2	post	4	19	19	NIH_Toolbox_Flanker_Inhibitory_Control_and_Attention_Test_Age_12+_v2.1	FLANKER_ARROW_CONGRUENT19	1	1	23	1.396172	main
8023	2	post	4	19	20	NIH_Toolbox_Flanker_Inhibitory_Control_and_Attention_Test_Age_12+_v2.1	FLANKER_ARROW_INCONGRUENT20	2	1	24	0.79912	main
