participant_id	group	session	instOrdr	instSctn	itmOrdr	inst	itemID	response	score	position	responseTime	type
6008	2	post	1	2	2	NIH_Toolbox_List_Sorting_Working_Memory_Test_Age_7+_v2.1	LS1LAP1	1	1	1	0	practice
6008	2	post	1	2	4	NIH_Toolbox_List_Sorting_Working_Memory_Test_Age_7+_v2.1	LS1LAP2	1	1	2	0	practice
6008	2	post	1	4	1	NIH_Toolbox_List_Sorting_Working_Memory_Test_Age_7+_v2.1	WMLS1L3T1	1	4	3	0	main
6008	2	post	1	4	5	NIH_Toolbox_List_Sorting_Working_Memory_Test_Age_7+_v2.1	WMLS1L4T2	1	2	4	0	main
6008	2	post	1	4	7	NIH_Toolbox_List_Sorting_Working_Memory_Test_Age_7+_v2.1	WMLS1L5T2	1	2	5	0	main
6008	2	post	1	4	9	NIH_Toolbox_List_Sorting_Working_Memory_Test_Age_7+_v2.1	WMLS1L6T3	2	0	6	0	main
6008	2	post	1	4	10	NIH_Toolbox_List_Sorting_Working_Memory_Test_Age_7+_v2.1	WMLS1L6T1	2	0	7	0	main
6008	2	post	1	5	2	NIH_Toolbox_List_Sorting_Working_Memory_Test_Age_7+_v2.1	LS2LAP1	1	1	8	0	practice
6008	2	post	1	5	4	NIH_Toolbox_List_Sorting_Working_Memory_Test_Age_7+_v2.1	LS2LAP2	1	1	9	0	practice
6008	2	post	1	7	1	NIH_Toolbox_List_Sorting_Working_Memory_Test_Age_7+_v2.1	WMLS2L03A	1	2	10	0	main
6008	2	post	1	7	3	NIH_Toolbox_List_Sorting_Working_Memory_Test_Age_7+_v2.1	WMLS2L04T2	1	2	11	0	main
6008	2	post	1	7	5	NIH_Toolbox_List_Sorting_Working_Memory_Test_Age_7+_v2.1	WMLS2L05T3	1	2	12	0	main
6008	2	post	1	7	7	NIH_Toolbox_List_Sorting_Working_Memory_Test_Age_7+_v2.1	WMLS2L04A	1	2	13	0	main
6008	2	post	1	7	9	NIH_Toolbox_List_Sorting_Working_Memory_Test_Age_7+_v2.1	WMLS2L07T3	1	2	14	0	main
6008	2	post	1	7	11	NIH_Toolbox_List_Sorting_Working_Memory_Test_Age_7+_v2.1	WMLS2L08T1	2	0	15	0	main
6008	2	post	1	7	12	NIH_Toolbox_List_Sorting_Working_Memory_Test_Age_7+_v2.1	WMLS2L06B	2	0	16	0	main
6008	2	post	2	1	1	NIH_Toolbox_Pattern_Comparison_Processing_Speed_Test_Age_7+_Practice_v2.1	PSPAC_INSTR	n/a	n/a	n/a	n/a	instruction
6008	2	post	2	3	1	NIH_Toolbox_Pattern_Comparison_Processing_Speed_Test_Age_7+_Practice_v2.1	PSPAC_INTRO_INSTR	-1	n/a	1	n/a	instruction
6008	2	post	2	4	1	NIH_Toolbox_Pattern_Comparison_Processing_Speed_Test_Age_7+_Practice_v2.1	PSPACPA1	1	1	2	n/a	practice
6008	2	post	2	4	2	NIH_Toolbox_Pattern_Comparison_Processing_Speed_Test_Age_7+_Practice_v2.1	PSPACPA2	2	1	3	n/a	practice
6008	2	post	2	5	1	NIH_Toolbox_Pattern_Comparison_Processing_Speed_Test_Age_7+_Practice_v2.1	PSPACPA3	2	1	4	n/a	practice
6008	2	post	2	6	1	NIH_Toolbox_Pattern_Comparison_Processing_Speed_Test_Age_7+_Practice_v2.1	PSPACPA4	1	1	5	n/a	practice
6008	2	post	2	6	2	NIH_Toolbox_Pattern_Comparison_Processing_Speed_Test_Age_7+_Practice_v2.1	PSPACPA5	2	1	6	n/a	practice
6008	2	post	2	6	3	NIH_Toolbox_Pattern_Comparison_Processing_Speed_Test_Age_7+_Practice_v2.1	PSPACPA6	1	1	7	n/a	practice
6008	2	post	2	9	1	NIH_Toolbox_Pattern_Comparison_Processing_Speed_Test_Age_7+_Practice_v2.1	PSPAC_TRANSITION	-1	n/a	8	n/a	practice
6008	2	post	3	1	1	NIH_Toolbox_Pattern_Comparison_Processing_Speed_Test_Age_7+_v2.1	PSPAC003	1	1	1	1.753818	main
6008	2	post	3	1	2	NIH_Toolbox_Pattern_Comparison_Processing_Speed_Test_Age_7+_v2.1	PSPAC013	2	1	2	1.553285	main
6008	2	post	3	1	3	NIH_Toolbox_Pattern_Comparison_Processing_Speed_Test_Age_7+_v2.1	PSPAC005	1	1	3	1.706643	main
6008	2	post	3	1	4	NIH_Toolbox_Pattern_Comparison_Processing_Speed_Test_Age_7+_v2.1	PSPAC002	1	1	4	2.505782	main
6008	2	post	3	1	5	NIH_Toolbox_Pattern_Comparison_Processing_Speed_Test_Age_7+_v2.1	PSPAC021	2	1	5	1.797765	main
6008	2	post	3	1	6	NIH_Toolbox_Pattern_Comparison_Processing_Speed_Test_Age_7+_v2.1	PSPAC006	1	1	6	2.258389	main
6008	2	post	3	1	7	NIH_Toolbox_Pattern_Comparison_Processing_Speed_Test_Age_7+_v2.1	PSPAC023	2	1	7	1.86207	main
6008	2	post	3	1	8	NIH_Toolbox_Pattern_Comparison_Processing_Speed_Test_Age_7+_v2.1	PSPAC019	2	1	8	1.561945	main
6008	2	post	3	1	9	NIH_Toolbox_Pattern_Comparison_Processing_Speed_Test_Age_7+_v2.1	PSPAC007	1	1	9	1.877504	main
6008	2	post	3	1	10	NIH_Toolbox_Pattern_Comparison_Processing_Speed_Test_Age_7+_v2.1	PSPAC029	2	1	10	1.587518	main
6008	2	post	3	1	11	NIH_Toolbox_Pattern_Comparison_Processing_Speed_Test_Age_7+_v2.1	PSPAC055	1	1	11	2.306548	main
6008	2	post	3	1	12	NIH_Toolbox_Pattern_Comparison_Processing_Speed_Test_Age_7+_v2.1	PSPAC018	1	1	12	1.772889	main
6008	2	post	3	1	13	NIH_Toolbox_Pattern_Comparison_Processing_Speed_Test_Age_7+_v2.1	PSPAC031	2	1	13	1.63275	main
6008	2	post	3	1	14	NIH_Toolbox_Pattern_Comparison_Processing_Speed_Test_Age_7+_v2.1	PSPAC030	2	1	14	1.922878	main
6008	2	post	3	1	15	NIH_Toolbox_Pattern_Comparison_Processing_Speed_Test_Age_7+_v2.1	PSPAC061	2	1	15	2.126436	main
6008	2	post	3	1	16	NIH_Toolbox_Pattern_Comparison_Processing_Speed_Test_Age_7+_v2.1	PSPAC024	1	1	16	1.866194	main
6008	2	post	3	1	17	NIH_Toolbox_Pattern_Comparison_Processing_Speed_Test_Age_7+_v2.1	PSPAC028	1	1	17	2.212678	main
6008	2	post	3	1	18	NIH_Toolbox_Pattern_Comparison_Processing_Speed_Test_Age_7+_v2.1	PSPAC039	2	1	18	1.791006	main
6008	2	post	3	1	19	NIH_Toolbox_Pattern_Comparison_Processing_Speed_Test_Age_7+_v2.1	PSPAC113	1	1	19	1.718403	main
6008	2	post	3	1	20	NIH_Toolbox_Pattern_Comparison_Processing_Speed_Test_Age_7+_v2.1	PSPAC253	2	1	20	1.427254	main
6008	2	post	3	1	21	NIH_Toolbox_Pattern_Comparison_Processing_Speed_Test_Age_7+_v2.1	PSPAC036	1	1	21	1.849902	main
6008	2	post	3	1	22	NIH_Toolbox_Pattern_Comparison_Processing_Speed_Test_Age_7+_v2.1	PSPAC037	1	1	22	1.662158	main
6008	2	post	3	1	23	NIH_Toolbox_Pattern_Comparison_Processing_Speed_Test_Age_7+_v2.1	PSPAC041	1	1	23	1.767195	main
6008	2	post	3	1	24	NIH_Toolbox_Pattern_Comparison_Processing_Speed_Test_Age_7+_v2.1	PSPAC095	2	1	24	1.35486	main
6008	2	post	3	1	25	NIH_Toolbox_Pattern_Comparison_Processing_Speed_Test_Age_7+_v2.1	PSPAC110	2	1	25	1.345832	main
6008	2	post	3	1	26	NIH_Toolbox_Pattern_Comparison_Processing_Speed_Test_Age_7+_v2.1	PSPAC138	2	1	26	1.553554	main
6008	2	post	3	1	27	NIH_Toolbox_Pattern_Comparison_Processing_Speed_Test_Age_7+_v2.1	PSPAC043	1	1	27	2.590617	main
6008	2	post	3	1	28	NIH_Toolbox_Pattern_Comparison_Processing_Speed_Test_Age_7+_v2.1	PSPAC032	2	1	28	1.499305	main
6008	2	post	3	1	29	NIH_Toolbox_Pattern_Comparison_Processing_Speed_Test_Age_7+_v2.1	PSPAC047	1	1	29	1.552236	main
6008	2	post	3	1	30	NIH_Toolbox_Pattern_Comparison_Processing_Speed_Test_Age_7+_v2.1	PSPAC004	2	1	30	1.614006	main
6008	2	post	3	1	31	NIH_Toolbox_Pattern_Comparison_Processing_Speed_Test_Age_7+_v2.1	PSPAC044	2	1	31	1.490301	main
6008	2	post	3	1	32	NIH_Toolbox_Pattern_Comparison_Processing_Speed_Test_Age_7+_v2.1	PSPAC212	1	1	32	1.724121	main
6008	2	post	3	1	33	NIH_Toolbox_Pattern_Comparison_Processing_Speed_Test_Age_7+_v2.1	PSPAC016	2	1	33	1.724082	main
6008	2	post	3	1	34	NIH_Toolbox_Pattern_Comparison_Processing_Speed_Test_Age_7+_v2.1	PSPAC014	1	1	34	1.883833	main
6008	2	post	3	1	35	NIH_Toolbox_Pattern_Comparison_Processing_Speed_Test_Age_7+_v2.1	PSPAC052	2	1	35	1.261517	main
6008	2	post	3	1	36	NIH_Toolbox_Pattern_Comparison_Processing_Speed_Test_Age_7+_v2.1	PSPAC056	1	1	36	1.621304	main
6008	2	post	3	1	37	NIH_Toolbox_Pattern_Comparison_Processing_Speed_Test_Age_7+_v2.1	PSPAC008	1	1	37	1.388451	main
6008	2	post	3	1	38	NIH_Toolbox_Pattern_Comparison_Processing_Speed_Test_Age_7+_v2.1	PSPAC058	2	1	38	1.439642	main
6008	2	post	3	1	39	NIH_Toolbox_Pattern_Comparison_Processing_Speed_Test_Age_7+_v2.1	PSPAC059	1	1	39	1.476683	main
6008	2	post	3	1	40	NIH_Toolbox_Pattern_Comparison_Processing_Speed_Test_Age_7+_v2.1	PSPAC116	2	1	40	1.642849	main
6008	2	post	3	1	41	NIH_Toolbox_Pattern_Comparison_Processing_Speed_Test_Age_7+_v2.1	PSPAC051	2	1	41	1.585602	main
6008	2	post	3	1	42	NIH_Toolbox_Pattern_Comparison_Processing_Speed_Test_Age_7+_v2.1	PSPAC053	2	1	42	1.619078	main
6008	2	post	3	1	43	NIH_Toolbox_Pattern_Comparison_Processing_Speed_Test_Age_7+_v2.1	PSPAC141	1	1	43	2.035013	main
6008	2	post	3	1	44	NIH_Toolbox_Pattern_Comparison_Processing_Speed_Test_Age_7+_v2.1	PSPAC038	2	1	44	1.74521	main
6008	2	post	3	1	45	NIH_Toolbox_Pattern_Comparison_Processing_Speed_Test_Age_7+_v2.1	PSPAC065	1	1	45	1.394657	main
6008	2	post	3	1	46	NIH_Toolbox_Pattern_Comparison_Processing_Speed_Test_Age_7+_v2.1	PSPAC060	2	1	46	2.006636	main
6008	2	post	3	1	47	NIH_Toolbox_Pattern_Comparison_Processing_Speed_Test_Age_7+_v2.1	PSPAC068	1	1	47	1.578337	main
6008	2	post	3	1	48	NIH_Toolbox_Pattern_Comparison_Processing_Speed_Test_Age_7+_v2.1	PSPAC066	1	1	48	2.25918	main
6008	2	post	3	1	49	NIH_Toolbox_Pattern_Comparison_Processing_Speed_Test_Age_7+_v2.1	PSPAC064	2	1	49	1.591354	main
6008	2	post	4	13	1	NIH_Toolbox_Flanker_Inhibitory_Control_and_Attention_Test_Age_12+_v2.1	FLANKER_ARROW_PRAC1	1	1	1	0.948816	practice
6008	2	post	4	13	2	NIH_Toolbox_Flanker_Inhibitory_Control_and_Attention_Test_Age_12+_v2.1	FLANKER_ARROW_PRAC2	2	1	2	0.803705	practice
6008	2	post	4	13	3	NIH_Toolbox_Flanker_Inhibitory_Control_and_Attention_Test_Age_12+_v2.1	FLANKER_ARROW_PRAC3	1	1	3	0.992742	practice
6008	2	post	4	13	4	NIH_Toolbox_Flanker_Inhibitory_Control_and_Attention_Test_Age_12+_v2.1	FLANKER_ARROW_PRAC4	2	1	4	0.786486	practice
6008	2	post	4	19	1	NIH_Toolbox_Flanker_Inhibitory_Control_and_Attention_Test_Age_12+_v2.1	FLANKER_ARROW_CONGRUENT1	1	1	5	0.719096	main
6008	2	post	4	19	2	NIH_Toolbox_Flanker_Inhibitory_Control_and_Attention_Test_Age_12+_v2.1	FLANKER_ARROW_CONGRUENT2	2	1	6	0.698476	main
6008	2	post	4	19	3	NIH_Toolbox_Flanker_Inhibitory_Control_and_Attention_Test_Age_12+_v2.1	FLANKER_ARROW_INCONGRUENT3	2	1	7	0.726303	main
6008	2	post	4	19	4	NIH_Toolbox_Flanker_Inhibitory_Control_and_Attention_Test_Age_12+_v2.1	FLANKER_ARROW_CONGRUENT4	2	1	8	0.547249	main
6008	2	post	4	19	5	NIH_Toolbox_Flanker_Inhibitory_Control_and_Attention_Test_Age_12+_v2.1	FLANKER_ARROW_INCONGRUENT5	2	1	9	0.701381	main
6008	2	post	4	19	6	NIH_Toolbox_Flanker_Inhibitory_Control_and_Attention_Test_Age_12+_v2.1	FLANKER_ARROW_CONGRUENT6	2	1	10	0.625772	main
6008	2	post	4	19	7	NIH_Toolbox_Flanker_Inhibitory_Control_and_Attention_Test_Age_12+_v2.1	FLANKER_ARROW_INCONGRUENT7	1	1	11	0.706856	main
6008	2	post	4	19	8	NIH_Toolbox_Flanker_Inhibitory_Control_and_Attention_Test_Age_12+_v2.1	FLANKER_ARROW_CONGRUENT8	1	1	12	0.565378	main
6008	2	post	4	19	9	NIH_Toolbox_Flanker_Inhibitory_Control_and_Attention_Test_Age_12+_v2.1	FLANKER_ARROW_CONGRUENT9	1	1	13	1.248666	main
6008	2	post	4	19	10	NIH_Toolbox_Flanker_Inhibitory_Control_and_Attention_Test_Age_12+_v2.1	FLANKER_ARROW_INCONGRUENT10	1	1	14	0.601639	main
6008	2	post	4	19	11	NIH_Toolbox_Flanker_Inhibitory_Control_and_Attention_Test_Age_12+_v2.1	FLANKER_ARROW_CONGRUENT11	1	1	15	0.575806	main
6008	2	post	4	19	12	NIH_Toolbox_Flanker_Inhibitory_Control_and_Attention_Test_Age_12+_v2.1	FLANKER_ARROW_CONGRUENT12	2	1	16	0.592374	main
6008	2	post	4	19	13	NIH_Toolbox_Flanker_Inhibitory_Control_and_Attention_Test_Age_12+_v2.1	FLANKER_ARROW_INCONGRUENT13	2	1	17	0.686654	main
6008	2	post	4	19	14	NIH_Toolbox_Flanker_Inhibitory_Control_and_Attention_Test_Age_12+_v2.1	FLANKER_ARROW_CONGRUENT14	2	1	18	0.692523	main
6008	2	post	4	19	15	NIH_Toolbox_Flanker_Inhibitory_Control_and_Attention_Test_Age_12+_v2.1	FLANKER_ARROW_INCONGRUENT15	2	1	19	0.655452	main
6008	2	post	4	19	16	NIH_Toolbox_Flanker_Inhibitory_Control_and_Attention_Test_Age_12+_v2.1	FLANKER_ARROW_CONGRUENT16	1	1	20	0.709143	main
6008	2	post	4	19	17	NIH_Toolbox_Flanker_Inhibitory_Control_and_Attention_Test_Age_12+_v2.1	FLANKER_ARROW_INCONGRUENT17	1	1	21	0.769711	main
6008	2	post	4	19	18	NIH_Toolbox_Flanker_Inhibitory_Control_and_Attention_Test_Age_12+_v2.1	FLANKER_ARROW_CONGRUENT18	2	1	22	0.590372	main
6008	2	post	4	19	19	NIH_Toolbox_Flanker_Inhibitory_Control_and_Attention_Test_Age_12+_v2.1	FLANKER_ARROW_CONGRUENT19	1	1	23	0.612666	main
6008	2	post	4	19	20	NIH_Toolbox_Flanker_Inhibitory_Control_and_Attention_Test_Age_12+_v2.1	FLANKER_ARROW_INCONGRUENT20	2	1	24	0.587453	main
