trial	trial_type	stimulus	fontsize	response	accuracy	reactiontime
1	go	1	16	1	1	915
2	go	4	10	1	1	612
3	go	1	13	1	1	649
4	go	1	7	1	1	664
5	go	5	7	1	1	657
6	go	1	16	1	1	627
7	go	8	10	1	1	594
8	go	6	13	1	1	636
9	go	5	4	1	1	626
10	go	7	4	1	1	569
11	go	7	4	1	1	588
12	go	9	13	1	1	650
13	go	2	4	1	1	646
14	nogo	3	10	0	1	n/a
15	go	8	10	1	1	322
16	go	5	4	1	1	367
17	go	5	4	1	1	561
18	go	6	13	1	1	582
19	go	1	16	1	1	687
20	go	8	7	1	1	635
21	go	9	4	1	1	578
22	go	8	4	1	1	620
23	go	2	16	1	1	748
24	go	7	7	1	1	672
25	go	6	7	1	1	642
26	go	4	7	1	1	701
27	go	8	16	1	1	739
28	go	6	16	1	1	754
29	go	8	13	1	1	701
30	go	2	7	1	1	718
31	go	9	4	1	1	732
32	go	8	16	1	1	838
33	go	9	4	1	1	723
34	go	5	7	1	1	694
35	go	2	4	1	1	624
36	go	4	7	1	1	689
37	nogo	3	13	0	1	n/a
38	go	5	4	1	1	892
39	go	5	10	1	1	565
40	go	6	4	1	1	627
41	nogo	3	10	1	0	558
42	go	2	16	1	1	707
43	go	7	7	1	1	700
44	go	5	16	1	1	631
45	go	7	16	1	1	695
46	go	8	7	1	1	762
47	go	2	7	1	1	710
48	go	7	13	1	1	634
49	go	4	10	1	1	724
50	go	1	4	1	1	692
51	nogo	3	16	0	1	n/a
52	go	7	10	1	1	369
53	go	4	16	1	1	545
54	go	6	13	1	1	696
55	go	4	7	1	1	803
56	go	8	16	1	1	707
57	go	8	4	1	1	656
58	go	4	4	1	1	718
59	go	1	10	1	1	844
60	go	9	4	1	1	862
61	go	9	10	1	1	784
62	go	4	13	1	1	845
63	go	8	13	1	1	725
64	go	2	7	1	1	761
65	go	2	16	1	1	709
66	go	8	4	1	1	588
67	go	7	10	1	1	536
68	nogo	3	16	0	1	n/a
69	go	4	4	0	0	n/a
70	go	7	10	1	1	769
71	go	1	13	1	1	720
72	go	4	13	1	1	718
73	nogo	3	16	0	1	n/a
74	go	5	7	1	1	553
75	go	9	16	1	1	575
76	go	8	4	1	1	594
77	go	4	10	1	1	627
78	go	7	7	1	1	555
79	go	4	16	1	1	543
80	go	1	4	1	1	632
81	go	2	16	1	1	713
82	go	6	13	1	1	588
83	go	6	4	1	1	580
84	go	4	4	1	1	602
85	go	6	7	1	1	470
86	go	6	4	1	1	631
87	go	9	10	1	1	648
88	go	9	10	1	1	616
89	go	7	10	1	1	653
90	go	6	13	1	1	624
91	go	4	4	1	1	795
92	go	1	13	1	1	788
93	go	7	10	1	1	969
94	nogo	3	13	0	1	n/a
95	nogo	3	16	1	0	351
96	go	9	16	1	1	520
97	go	8	10	1	1	560
98	go	2	10	1	1	580
99	go	7	10	1	1	623
100	go	6	7	1	1	639
101	go	6	7	1	1	632
102	go	1	7	1	1	602
103	go	9	16	1	1	684
104	go	9	13	1	1	699
105	nogo	3	7	0	1	n/a
106	go	1	10	1	1	646
107	go	4	16	1	1	710
108	go	1	7	1	1	682
109	go	1	13	1	1	605
110	go	2	16	1	1	688
111	nogo	3	10	0	1	n/a
112	go	6	7	1	1	838
113	go	8	7	1	1	671
114	go	5	13	1	1	640
115	go	9	10	1	1	634
116	nogo	3	13	0	1	n/a
117	go	9	7	1	1	746
118	go	5	10	1	1	628
119	go	5	10	1	1	594
120	go	4	10	1	1	514
121	go	2	4	1	1	585
122	go	6	13	1	1	598
123	go	8	7	1	1	546
124	nogo	3	13	1	0	518
125	go	8	16	1	1	553
126	go	4	16	1	1	540
127	go	4	16	1	1	583
128	go	2	4	1	1	665
129	go	5	10	1	1	702
130	go	2	10	1	1	650
131	go	1	16	1	1	644
132	go	1	10	1	1	608
133	go	5	7	1	1	601
134	go	9	13	1	1	688
135	go	5	16	1	1	756
136	go	4	13	1	1	820
137	go	5	7	1	1	835
138	nogo	3	4	0	1	n/a
139	go	4	16	1	1	551
140	go	2	10	1	1	752
141	go	5	16	1	1	801
142	go	6	4	1	1	569
143	go	9	10	1	1	633
144	go	4	10	1	1	549
145	go	6	7	1	1	579
146	nogo	3	13	0	1	n/a
147	go	1	13	1	1	728
148	go	5	7	1	1	539
149	go	5	4	1	1	413
150	go	4	13	1	1	475
151	go	6	13	1	1	539
152	go	4	13	1	1	528
153	go	5	4	1	1	642
154	go	5	7	1	1	657
155	go	6	16	1	1	587
156	go	2	13	1	1	498
157	nogo	3	4	0	1	n/a
158	go	8	16	1	1	812
159	nogo	3	16	0	1	n/a
160	go	1	10	1	1	854
161	go	9	10	1	1	370
162	nogo	3	4	1	0	582
163	go	2	13	1	1	670
164	go	7	13	1	1	527
165	go	6	4	1	1	547
166	go	6	7	1	1	602
167	go	2	4	1	1	759
168	go	2	7	1	1	820
169	go	8	7	1	1	630
170	go	8	16	1	1	549
171	go	6	10	1	1	570
172	nogo	3	16	0	1	n/a
173	go	2	10	1	1	561
174	go	1	13	1	1	424
175	go	6	13	1	1	422
176	go	1	7	1	1	685
177	nogo	3	13	0	1	n/a
178	go	1	13	1	1	949
179	go	7	10	1	1	599
180	go	2	4	1	1	571
181	go	9	13	1	1	524
182	go	9	16	1	1	562
183	go	8	4	1	1	718
184	go	7	13	1	1	777
185	go	2	16	1	1	792
186	go	7	7	1	1	583
187	go	9	13	1	1	567
188	go	7	10	1	1	539
189	go	1	16	1	1	553
190	go	4	7	1	1	553
191	go	8	16	1	1	592
192	go	5	10	1	1	565
193	go	9	16	1	1	603
194	go	5	7	1	1	573
195	go	6	13	1	1	768
196	go	9	4	1	1	761
197	nogo	3	7	0	1	n/a
198	go	9	10	1	1	638
199	go	8	13	1	1	541
200	go	7	7	1	1	472
201	nogo	3	7	0	1	n/a
202	go	4	16	1	1	759
203	nogo	3	4	1	0	657
204	go	1	4	1	1	672
205	go	6	10	1	1	552
206	go	5	13	1	1	484
207	go	9	4	1	1	572
208	go	2	7	1	1	520
209	go	7	10	1	1	489
210	go	7	10	1	1	348
211	go	1	7	1	1	441
212	go	8	4	1	1	597
213	go	7	16	1	1	820
214	go	1	4	1	1	1060
215	go	7	16	1	1	918
216	nogo	3	13	0	1	n/a
217	nogo	3	4	0	1	n/a
218	go	2	10	1	1	727
219	go	2	13	1	1	562
220	go	7	7	1	1	323
221	go	5	13	1	1	452
222	nogo	3	4	1	0	330
223	go	7	16	1	1	330
224	go	8	7	1	1	301
225	go	9	10	1	1	374
