trial	trial_type	stimulus	fontsize	response	accuracy	reactiontime
1	go	1	4	0	0	n/a
2	go	4	7	1	1	39
3	go	1	16	1	1	284
4	go	1	13	1	1	275
5	go	5	7	1	1	369
6	go	1	10	1	1	326
7	go	8	16	1	1	468
8	go	6	10	1	1	252
9	go	5	13	1	1	312
10	go	7	10	1	1	355
11	go	7	4	1	1	416
12	go	9	10	1	1	350
13	go	2	13	1	1	404
14	nogo	3	13	1	0	398
15	go	8	16	1	1	423
16	go	5	10	1	1	344
17	go	5	16	1	1	438
18	go	6	10	1	1	320
19	go	1	13	1	1	231
20	go	8	10	1	1	444
21	go	9	10	1	1	559
22	go	8	4	1	1	666
23	go	2	10	1	1	515
24	go	7	4	1	1	412
25	go	6	7	1	1	440
26	go	4	10	1	1	329
27	go	8	16	1	1	367
28	go	6	4	1	1	475
29	go	8	7	1	1	436
30	go	2	10	1	1	564
31	go	9	4	1	1	602
32	go	8	10	1	1	487
33	go	9	7	1	1	621
34	go	5	16	1	1	597
35	go	2	4	1	1	656
36	go	4	10	1	1	628
37	nogo	3	16	0	1	n/a
38	go	5	13	1	1	756
39	go	5	4	1	1	357
40	go	6	16	1	1	327
41	nogo	3	7	1	0	319
42	go	2	16	1	1	774
43	go	7	7	1	1	534
44	go	5	7	1	1	412
45	go	7	4	1	1	447
46	go	8	7	1	1	450
47	go	2	10	1	1	622
48	go	7	7	1	1	470
49	go	4	7	1	1	359
50	go	1	13	0	0	n/a
51	nogo	3	16	0	1	n/a
52	go	7	13	1	1	736
53	go	4	16	1	1	273
54	go	6	16	1	1	352
55	go	4	10	1	1	334
56	go	8	10	1	1	381
57	go	8	16	1	1	481
58	go	4	7	1	1	437
59	go	1	4	0	0	n/a
60	go	9	7	1	1	471
61	go	9	4	1	1	395
62	go	4	7	1	1	597
63	go	8	7	1	1	702
64	go	2	10	1	1	767
65	go	2	13	1	1	827
66	go	8	4	1	1	957
67	go	7	16	1	1	768
68	nogo	3	4	0	1	n/a
69	go	4	13	1	1	332
70	go	7	7	1	1	305
71	go	1	16	1	1	175
72	go	4	13	1	1	293
73	nogo	3	13	0	1	n/a
74	go	5	7	1	1	412
75	go	9	13	1	1	636
76	go	8	13	1	1	452
77	go	4	7	1	1	349
78	go	7	4	1	1	279
79	go	4	10	1	1	276
80	go	1	4	1	1	371
81	go	2	4	1	1	386
82	go	6	13	1	1	618
83	go	6	7	1	1	655
84	go	4	7	1	1	595
85	go	6	10	1	1	751
86	go	6	7	1	1	750
87	go	9	10	1	1	855
88	go	9	4	0	0	n/a
89	go	7	7	1	1	1145
90	go	6	16	1	1	826
91	go	4	13	1	1	841
92	go	1	16	0	0	n/a
93	go	7	4	1	1	444
94	nogo	3	16	0	1	n/a
95	nogo	3	13	0	1	n/a
96	go	9	10	1	1	557
97	go	8	16	1	1	386
98	go	2	13	1	1	311
99	go	7	10	1	1	471
100	go	6	10	1	1	585
101	go	6	16	1	1	508
102	go	1	16	1	1	620
103	go	9	4	1	1	618
104	go	9	7	1	1	677
105	nogo	3	4	0	1	n/a
106	go	1	16	1	1	358
107	go	4	4	1	1	398
108	go	1	7	1	1	360
109	go	1	4	1	1	375
110	go	2	13	1	1	611
111	nogo	3	7	0	1	n/a
112	go	6	13	1	1	537
113	go	8	7	1	1	374
114	go	5	7	1	1	375
115	go	9	13	1	1	270
116	nogo	3	13	1	0	248
117	go	9	7	1	1	761
118	go	5	10	1	1	399
119	go	5	4	1	1	290
120	go	4	10	1	1	305
121	go	2	13	1	1	651
122	go	6	13	1	1	478
123	go	8	16	1	1	374
124	nogo	3	10	0	1	n/a
125	go	8	4	1	1	660
126	go	4	16	1	1	373
127	go	4	13	0	0	n/a
128	go	2	7	1	1	25
129	go	5	7	1	1	296
130	go	2	10	1	1	418
131	go	1	16	1	1	660
132	go	1	16	1	1	415
133	go	5	7	1	1	728
134	go	9	4	1	1	764
135	go	5	13	0	0	n/a
136	go	4	7	1	1	46
137	go	5	4	1	1	445
138	nogo	3	16	0	1	n/a
139	go	4	4	1	1	522
140	go	2	13	1	1	744
141	go	5	10	1	1	691
142	go	6	10	1	1	767
143	go	9	16	1	1	787
144	go	4	7	1	1	651
145	go	6	4	1	1	718
146	nogo	3	16	0	1	n/a
147	go	1	7	1	1	755
148	go	5	16	1	1	768
149	go	5	10	1	1	738
150	go	4	4	1	1	707
151	go	6	13	1	1	728
152	go	4	16	1	1	752
153	go	5	10	1	1	715
154	go	5	4	1	1	877
155	go	6	13	1	1	853
156	go	2	10	1	1	820
157	nogo	3	4	0	1	n/a
158	go	8	13	1	1	821
159	nogo	3	13	0	1	n/a
160	go	1	16	1	1	879
161	go	9	7	1	1	710
162	nogo	3	16	0	1	n/a
163	go	2	13	1	1	726
164	go	7	4	1	1	768
165	go	6	7	1	1	851
166	go	6	7	1	1	729
167	go	2	7	1	1	812
168	go	2	13	1	1	873
169	go	8	16	1	1	753
170	go	8	13	1	1	577
171	go	6	7	1	1	693
172	nogo	3	10	0	1	n/a
173	go	2	4	1	1	1069
174	go	1	13	1	1	991
175	go	6	7	1	1	758
176	go	1	16	1	1	937
177	nogo	3	13	0	1	n/a
178	go	1	16	1	1	958
179	go	7	16	1	1	744
180	go	2	10	1	1	715
181	go	9	4	1	1	707
182	go	9	7	1	1	724
183	go	8	4	1	1	750
184	go	7	10	1	1	808
185	go	2	10	1	1	827
186	go	7	13	1	1	749
187	go	9	13	1	1	877
188	go	7	16	1	1	688
189	go	1	7	1	1	733
190	go	4	4	1	1	838
191	go	8	4	1	1	762
192	go	5	16	1	1	869
193	go	9	13	1	1	792
194	go	5	13	1	1	940
195	go	6	4	1	1	958
196	go	9	13	0	0	n/a
197	nogo	3	16	1	0	310
198	go	9	4	1	1	677
199	go	8	7	1	1	714
200	go	7	10	1	1	668
201	nogo	3	4	0	1	n/a
202	go	4	7	1	1	749
203	nogo	3	10	0	1	n/a
204	go	1	4	1	1	791
205	go	6	13	1	1	691
206	go	5	10	1	1	753
207	go	9	16	1	1	722
208	go	2	16	1	1	895
209	go	7	4	1	1	729
210	go	7	4	0	0	n/a
211	go	1	10	0	0	n/a
212	go	8	10	1	1	832
213	go	7	7	1	1	779
214	go	1	10	1	1	775
215	go	7	16	1	1	797
216	nogo	3	13	1	0	745
217	nogo	3	4	1	0	851
218	go	2	10	1	1	874
219	go	2	13	1	1	817
220	go	7	10	1	1	765
221	go	5	4	1	1	878
222	nogo	3	16	0	1	n/a
223	go	7	16	1	1	1139
224	go	8	13	1	1	679
225	go	9	10	1	1	627
