trial	trial_type	stimulus	fontsize	response	accuracy	reactiontime
1	go	1	13	1	1	645
2	go	4	13	1	1	456
3	go	1	10	1	1	273
4	go	1	4	1	1	421
5	go	5	13	1	1	376
6	go	1	13	1	1	396
7	go	8	10	1	1	642
8	go	6	4	1	1	486
9	go	5	7	1	1	436
10	go	7	13	1	1	391
11	go	7	10	1	1	386
12	go	9	10	1	1	409
13	go	2	7	1	1	566
14	nogo	3	10	0	1	n/a
15	go	8	4	1	1	448
16	go	5	10	1	1	405
17	go	5	10	1	1	312
18	go	6	13	1	1	260
19	go	1	4	1	1	441
20	go	8	10	1	1	484
21	go	9	4	1	1	459
22	go	8	10	1	1	460
23	go	2	4	1	1	411
24	go	7	4	1	1	434
25	go	6	10	1	1	454
26	go	4	7	1	1	453
27	go	8	7	1	1	586
28	go	6	13	1	1	426
29	go	8	10	1	1	404
30	go	2	16	1	1	509
31	go	9	13	1	1	457
32	go	8	10	1	1	401
33	go	9	4	1	1	428
34	go	5	16	1	1	422
35	go	2	10	1	1	488
36	go	4	7	1	1	418
37	nogo	3	16	1	0	210
38	go	5	4	1	1	572
39	go	5	10	1	1	309
40	go	6	7	1	1	273
41	nogo	3	16	0	1	n/a
42	go	2	4	1	1	414
43	go	7	13	1	1	430
44	go	5	10	1	1	522
45	go	7	7	1	1	403
46	go	8	7	1	1	353
47	go	2	13	1	1	444
48	go	7	13	1	1	479
49	go	4	13	1	1	480
50	go	1	16	1	1	524
51	nogo	3	7	0	1	n/a
52	go	7	13	1	1	453
53	go	4	13	1	1	451
54	go	6	10	1	1	471
55	go	4	4	1	1	336
56	go	8	10	1	1	445
57	go	8	13	1	1	468
58	go	4	13	1	1	444
59	go	1	16	1	1	486
60	go	9	7	1	1	461
61	go	9	7	1	1	416
62	go	4	4	1	1	550
63	go	8	7	1	1	433
64	go	2	13	1	1	382
65	go	2	4	1	1	537
66	go	8	16	1	1	470
67	go	7	13	1	1	444
68	nogo	3	10	1	0	488
69	go	4	4	1	1	666
70	go	7	10	1	1	489
71	go	1	10	1	1	550
72	go	4	7	1	1	526
73	nogo	3	10	0	1	n/a
74	go	5	16	1	1	434
75	go	9	13	1	1	379
76	go	8	7	1	1	447
77	go	4	4	1	1	444
78	go	7	16	1	1	412
79	go	4	4	1	1	491
80	go	1	7	1	1	458
81	go	2	10	1	1	506
82	go	6	13	1	1	477
83	go	6	10	1	1	469
84	go	4	10	1	1	420
85	go	6	4	1	1	372
86	go	6	16	1	1	574
87	go	9	4	1	1	505
88	go	9	10	1	1	410
89	go	7	10	1	1	369
90	go	6	16	1	1	367
91	go	4	16	1	1	340
92	go	1	4	1	1	316
93	go	7	7	1	1	432
94	nogo	3	4	1	0	312
95	nogo	3	16	0	1	n/a
96	go	9	13	0	0	n/a
97	go	8	4	0	0	n/a
98	go	2	4	0	0	n/a
99	go	7	10	0	0	n/a
100	go	6	16	1	1	504
101	go	6	7	1	1	456
102	go	1	7	1	1	480
103	go	9	13	1	1	407
104	go	9	10	1	1	495
105	nogo	3	7	0	1	n/a
106	go	1	4	1	1	536
107	go	4	7	1	1	507
108	go	1	7	1	1	420
109	go	1	10	1	1	549
110	go	2	13	1	1	435
111	nogo	3	16	0	1	n/a
112	go	6	10	1	1	452
113	go	8	13	1	1	406
114	go	5	4	1	1	522
115	go	9	4	1	1	446
116	nogo	3	13	0	1	n/a
117	go	9	10	1	1	398
118	go	5	13	0	0	n/a
119	go	5	13	1	1	642
120	go	4	4	1	1	598
121	go	2	10	1	1	593
122	go	6	4	1	1	593
123	go	8	16	1	1	614
124	nogo	3	13	0	1	n/a
125	go	8	13	1	1	403
126	go	4	10	1	1	400
127	go	4	16	1	1	506
128	go	2	16	1	1	471
129	go	5	4	1	1	612
130	go	2	13	1	1	522
131	go	1	13	1	1	475
132	go	1	7	1	1	451
133	go	5	13	1	1	471
134	go	9	13	1	1	475
135	go	5	16	1	1	448
136	go	4	4	1	1	423
137	go	5	16	1	1	504
138	nogo	3	7	0	1	n/a
139	go	4	16	1	1	431
140	go	2	16	1	1	363
141	go	5	7	1	1	362
142	go	6	13	1	1	428
143	go	9	16	1	1	377
144	go	4	16	1	1	447
145	go	6	16	1	1	469
146	nogo	3	4	0	1	n/a
147	go	1	16	1	1	459
148	go	5	4	1	1	481
149	go	5	16	1	1	500
150	go	4	16	1	1	549
151	go	6	7	1	1	520
152	go	4	4	1	1	541
153	go	5	7	1	1	517
154	go	5	16	1	1	824
155	go	6	7	1	1	569
156	go	2	16	1	1	769
157	nogo	3	16	0	1	n/a
158	go	8	4	1	1	587
159	nogo	3	4	1	0	405
160	go	1	10	1	1	493
161	go	9	16	1	1	582
162	nogo	3	13	0	1	n/a
163	go	2	4	1	1	623
164	go	7	13	1	1	840
165	go	6	13	1	1	841
166	go	6	7	1	1	791
167	go	2	4	1	1	673
168	go	2	16	1	1	557
169	go	8	13	1	1	579
170	go	8	7	1	1	556
171	go	6	10	1	1	491
172	nogo	3	7	0	1	n/a
173	go	2	4	1	1	482
174	go	1	4	1	1	474
175	go	6	7	1	1	489
176	go	1	10	1	1	484
177	nogo	3	7	0	1	n/a
178	go	1	16	1	1	530
179	go	7	16	1	1	453
180	go	2	13	1	1	565
181	go	9	10	1	1	541
182	go	9	4	1	1	471
183	go	8	16	1	1	464
184	go	7	7	1	1	429
185	go	2	10	1	1	569
186	go	7	10	1	1	481
187	go	9	10	1	1	502
188	go	7	16	1	1	430
189	go	1	16	1	1	454
190	go	4	16	1	1	474
191	go	8	16	1	1	473
192	go	5	7	1	1	475
193	go	9	7	1	1	447
194	go	5	7	1	1	581
195	go	6	13	1	1	485
196	go	9	7	1	1	467
197	nogo	3	10	0	1	n/a
198	go	9	4	1	1	461
199	go	8	16	1	1	481
200	go	7	7	1	1	548
201	nogo	3	16	0	1	n/a
202	go	4	16	1	1	494
203	nogo	3	7	1	0	762
204	go	1	7	1	1	697
205	go	6	7	1	1	600
206	go	5	10	1	1	892
207	go	9	4	1	1	801
208	go	2	13	1	1	708
209	go	7	7	1	1	504
210	go	7	13	1	1	746
211	go	1	13	1	1	782
212	go	8	4	1	1	776
213	go	7	7	1	1	885
214	go	1	7	1	1	817
215	go	7	13	1	1	1018
216	nogo	3	4	0	1	n/a
217	nogo	3	13	0	1	n/a
218	go	2	4	1	1	494
219	go	2	16	1	1	539
220	go	7	7	1	1	641
221	go	5	10	1	1	428
222	nogo	3	10	0	1	n/a
223	go	7	16	1	1	384
224	go	8	10	1	1	494
225	go	9	4	1	1	445
