trial	response	correct_response	accuracy	reaction_time
1	l	l	1	1150
2	j	j	1	842
3	l	l	1	1072
4	j	j	1	891
5	k	k	1	872
6	l	l	1	1280
7	j	l	0	1200
8	j	j	1	889
9	k	k	1	1008
10	j	j	1	1722
11	n/a	j	0	n/a
12	k	k	1	1543
13	l	l	1	1378
14	k	k	1	1050
15	k	k	1	1485
16	l	l	1	877
17	l	l	1	1095
18	k	k	1	865
19	n/a	l	0	n/a
20	j	j	1	945
