trial	trial_type	stimulus	fontsize	response	accuracy	reactiontime
1	go	1	10	1	1	660
2	go	4	16	1	1	676
3	go	1	13	1	1	607
4	go	1	13	1	1	627
5	go	5	13	1	1	604
6	go	1	7	1	1	624
7	go	8	10	1	1	600
8	go	6	4	1	1	598
9	go	5	16	1	1	664
10	go	7	10	1	1	611
11	go	7	4	1	1	651
12	go	9	13	1	1	670
13	go	2	10	1	1	668
14	nogo	3	4	0	1	n/a
15	go	8	4	1	1	598
16	go	5	13	1	1	664
17	go	5	10	1	1	685
18	go	6	16	1	1	685
19	go	1	16	1	1	659
20	go	8	16	1	1	657
21	go	9	16	1	1	611
22	go	8	7	1	1	630
23	go	2	16	1	1	628
24	go	7	4	1	1	654
25	go	6	13	1	1	665
26	go	4	10	1	1	640
27	go	8	7	1	1	621
28	go	6	16	1	1	636
29	go	8	7	1	1	634
30	go	2	13	1	1	679
31	go	9	10	1	1	654
32	go	8	10	1	1	676
33	go	9	7	1	1	628
34	go	5	10	1	1	599
35	go	2	4	1	1	693
36	go	4	16	1	1	667
37	nogo	3	10	0	1	n/a
38	go	5	16	1	1	620
39	go	5	7	1	1	640
40	go	6	7	1	1	639
41	nogo	3	13	0	1	n/a
42	go	2	16	1	1	680
43	go	7	10	1	1	656
44	go	5	13	1	1	655
45	go	7	7	1	1	627
46	go	8	16	1	1	609
47	go	2	4	1	1	651
48	go	7	16	1	1	619
49	go	4	10	1	1	596
50	go	1	4	1	1	618
51	nogo	3	13	0	1	n/a
52	go	7	4	1	1	680
53	go	4	7	1	1	610
54	go	6	10	1	1	633
55	go	4	4	1	1	631
56	go	8	4	1	1	602
57	go	8	4	1	1	604
58	go	4	13	1	1	625
59	go	1	16	1	1	579
60	go	9	16	1	1	645
61	go	9	4	1	1	603
62	go	4	7	1	1	618
63	go	8	13	1	1	618
64	go	2	16	1	1	661
65	go	2	7	1	1	637
66	go	8	4	1	1	639
67	go	7	4	1	1	636
68	nogo	3	4	0	1	n/a
69	go	4	10	1	1	607
70	go	7	7	1	1	623
71	go	1	7	1	1	637
72	go	4	13	1	1	592
73	nogo	3	4	0	1	n/a
74	go	5	10	1	1	632
75	go	9	4	1	1	631
76	go	8	13	1	1	656
77	go	4	13	1	1	604
78	go	7	10	1	1	606
79	go	4	7	1	1	605
80	go	1	13	1	1	621
81	go	2	13	1	1	667
82	go	6	7	1	1	643
83	go	6	10	1	1	618
84	go	4	13	1	1	634
85	go	6	10	1	1	647
86	go	6	10	1	1	623
87	go	9	4	1	1	645
88	go	9	7	1	1	623
89	go	7	16	1	1	640
90	go	6	16	1	1	639
91	go	4	13	1	1	660
92	go	1	4	1	1	635
93	go	7	10	1	1	607
94	nogo	3	4	0	1	n/a
95	nogo	3	16	0	1	n/a
96	go	9	10	1	1	787
97	go	8	13	1	1	626
98	go	2	16	1	1	601
99	go	7	10	1	1	596
100	go	6	13	1	1	567
101	go	6	7	1	1	585
102	go	1	7	1	1	558
103	go	9	7	1	1	584
104	go	9	10	1	1	628
105	nogo	3	13	0	1	n/a
106	go	1	16	1	1	606
107	go	4	4	1	1	688
108	go	1	7	1	1	633
109	go	1	16	1	1	664
110	go	2	10	1	1	617
111	nogo	3	7	0	1	n/a
112	go	6	4	1	1	681
113	go	8	7	1	1	639
114	go	5	16	1	1	750
115	go	9	13	1	1	698
116	nogo	3	16	0	1	n/a
117	go	9	10	1	1	665
118	go	5	7	1	1	689
119	go	5	16	1	1	663
120	go	4	7	1	1	684
121	go	2	4	1	1	704
122	go	6	16	1	1	657
123	go	8	4	1	1	651
124	nogo	3	10	0	1	n/a
125	go	8	16	1	1	630
126	go	4	7	1	1	629
127	go	4	7	1	1	651
128	go	2	10	1	1	673
129	go	5	10	1	1	651
130	go	2	4	1	1	709
131	go	1	13	1	1	667
132	go	1	10	1	1	735
133	go	5	7	1	1	708
134	go	9	16	1	1	751
135	go	5	7	1	1	704
136	go	4	16	1	1	695
137	go	5	13	1	1	648
138	nogo	3	13	0	1	n/a
139	go	4	7	1	1	648
140	go	2	7	1	1	711
141	go	5	4	1	1	710
142	go	6	7	1	1	658
143	go	9	13	1	1	655
144	go	4	13	1	1	632
145	go	6	4	1	1	625
146	nogo	3	10	0	1	n/a
147	go	1	16	1	1	605
148	go	5	13	1	1	693
149	go	5	13	1	1	668
150	go	4	13	1	1	754
151	go	6	13	1	1	748
152	go	4	13	1	1	670
153	go	5	13	1	1	720
154	go	5	7	1	1	741
155	go	6	7	1	1	691
156	go	2	13	1	1	825
157	nogo	3	13	0	1	n/a
158	go	8	10	1	1	748
159	nogo	3	13	0	1	n/a
160	go	1	13	1	1	752
161	go	9	16	1	1	745
162	nogo	3	7	0	1	n/a
163	go	2	10	1	1	756
164	go	7	4	1	1	733
165	go	6	10	1	1	730
166	go	6	10	1	1	709
167	go	2	16	1	1	705
168	go	2	10	1	1	657
169	go	8	4	1	1	751
170	go	8	13	1	1	700
171	go	6	10	1	1	675
172	nogo	3	7	0	1	n/a
173	go	2	4	1	1	763
174	go	1	7	1	1	805
175	go	6	16	1	1	759
176	go	1	7	1	1	669
177	nogo	3	4	0	1	n/a
178	go	1	16	1	1	754
179	go	7	10	1	1	749
180	go	2	7	1	1	773
181	go	9	4	1	1	789
182	go	9	16	1	1	781
183	go	8	7	1	1	717
184	go	7	10	1	1	737
185	go	2	10	1	1	765
186	go	7	4	1	1	779
187	go	9	13	1	1	710
188	go	7	16	1	1	712
189	go	1	4	1	1	634
190	go	4	7	1	1	673
191	go	8	7	1	1	679
192	go	5	4	1	1	712
193	go	9	4	1	1	736
194	go	5	10	1	1	754
195	go	6	7	1	1	684
196	go	9	4	1	1	679
197	nogo	3	10	0	1	n/a
198	go	9	4	1	1	770
199	go	8	13	1	1	680
200	go	7	16	1	1	632
201	nogo	3	4	0	1	n/a
202	go	4	10	1	1	741
203	nogo	3	16	0	1	n/a
204	go	1	10	1	1	711
205	go	6	4	1	1	724
206	go	5	16	1	1	682
207	go	9	10	1	1	680
208	go	2	4	1	1	744
209	go	7	16	1	1	696
210	go	7	7	1	1	626
211	go	1	16	1	1	624
212	go	8	4	1	1	717
213	go	7	10	1	1	712
214	go	1	16	1	1	672
215	go	7	13	1	1	668
216	nogo	3	13	0	1	n/a
217	nogo	3	16	0	1	n/a
218	go	2	16	1	1	681
219	go	2	4	1	1	697
220	go	7	13	1	1	627
221	go	5	13	1	1	602
222	nogo	3	4	0	1	n/a
223	go	7	7	1	1	711
224	go	8	16	1	1	709
225	go	9	7	1	1	686
