trial	trial_type	stimulus	fontsize	response	accuracy	reactiontime
1	go	1	7	1	1	683
2	go	4	4	1	1	442
3	go	1	10	1	1	411
4	go	1	16	1	1	361
5	go	5	10	1	1	389
6	go	1	13	1	1	381
7	go	8	10	1	1	373
8	go	6	7	1	1	371
9	go	5	7	1	1	382
10	go	7	13	1	1	337
11	go	7	16	1	1	373
12	go	9	13	1	1	395
13	go	2	16	1	1	318
14	nogo	3	10	0	1	n/a
15	go	8	16	1	1	365
16	go	5	16	1	1	322
17	go	5	16	1	1	316
18	go	6	10	1	1	308
19	go	1	16	1	1	324
20	go	8	13	1	1	350
21	go	9	4	1	1	309
22	go	8	13	1	1	306
23	go	2	4	1	1	507
24	go	7	7	1	1	390
25	go	6	10	1	1	274
26	go	4	4	1	1	296
27	go	8	16	1	1	331
28	go	6	7	1	1	341
29	go	8	16	1	1	315
30	go	2	7	1	1	306
31	go	9	10	1	1	306
32	go	8	16	1	1	338
33	go	9	7	1	1	342
34	go	5	10	1	1	318
35	go	2	4	1	1	480
36	go	4	13	1	1	325
37	nogo	3	7	1	0	313
38	go	5	16	1	1	389
39	go	5	4	1	1	354
40	go	6	13	1	1	330
41	nogo	3	13	1	0	309
42	go	2	10	1	1	606
43	go	7	4	1	1	349
44	go	5	13	1	1	310
45	go	7	16	1	1	292
46	go	8	7	1	1	315
47	go	2	16	1	1	302
48	go	7	10	1	1	306
49	go	4	10	1	1	385
50	go	1	13	1	1	400
51	nogo	3	16	1	0	347
52	go	7	4	1	1	464
53	go	4	7	1	1	446
54	go	6	7	1	1	305
55	go	4	16	1	1	301
56	go	8	16	1	1	316
57	go	8	16	1	1	305
58	go	4	4	1	1	339
59	go	1	7	1	1	316
60	go	9	7	1	1	450
61	go	9	10	1	1	407
62	go	4	10	1	1	377
63	go	8	16	1	1	473
64	go	2	4	1	1	419
65	go	2	7	1	1	400
66	go	8	7	1	1	392
67	go	7	4	1	1	419
68	nogo	3	4	1	0	400
69	go	4	4	1	1	583
70	go	7	16	1	1	353
71	go	1	13	1	1	382
72	go	4	7	1	1	341
73	nogo	3	4	1	0	375
74	go	5	13	1	1	506
75	go	9	4	1	1	454
76	go	8	13	1	1	378
77	go	4	16	1	1	390
78	go	7	16	1	1	432
79	go	4	7	1	1	442
80	go	1	10	1	1	394
81	go	2	7	1	1	409
82	go	6	10	1	1	378
83	go	6	13	1	1	484
84	go	4	16	1	1	453
85	go	6	13	1	1	379
86	go	6	16	1	1	314
87	go	9	7	1	1	381
88	go	9	13	1	1	408
89	go	7	10	1	1	374
90	go	6	7	1	1	459
91	go	4	7	1	1	475
92	go	1	13	1	1	489
93	go	7	7	1	1	501
94	nogo	3	10	1	0	811
95	nogo	3	10	0	1	n/a
96	go	9	4	1	1	409
97	go	8	10	1	1	462
98	go	2	16	1	1	492
99	go	7	13	1	1	533
100	go	6	10	1	1	575
101	go	6	13	1	1	590
102	go	1	13	1	1	579
103	go	9	16	1	1	407
104	go	9	13	1	1	386
105	nogo	3	10	1	0	405
106	go	1	4	1	1	475
107	go	4	13	1	1	490
108	go	1	7	1	1	628
109	go	1	16	1	1	665
110	go	2	10	1	1	749
111	nogo	3	13	0	1	n/a
112	go	6	10	1	1	639
113	go	8	4	1	1	632
114	go	5	10	1	1	645
115	go	9	10	1	1	661
116	nogo	3	4	0	1	n/a
117	go	9	7	1	1	631
118	go	5	7	1	1	644
119	go	5	10	1	1	614
120	go	4	4	1	1	651
121	go	2	16	1	1	689
122	go	6	4	1	1	703
123	go	8	16	1	1	697
124	nogo	3	13	0	1	n/a
125	go	8	4	1	1	433
126	go	4	7	1	1	651
127	go	4	4	1	1	598
128	go	2	4	1	1	678
129	go	5	7	1	1	628
130	go	2	7	1	1	600
131	go	1	16	1	1	587
132	go	1	13	1	1	696
133	go	5	4	1	1	688
134	go	9	16	1	1	568
135	go	5	13	1	1	515
136	go	4	13	1	1	530
137	go	5	10	1	1	614
138	nogo	3	10	0	1	n/a
139	go	4	10	1	1	584
140	go	2	10	1	1	523
141	go	5	13	1	1	499
142	go	6	13	1	1	603
143	go	9	10	1	1	406
144	go	4	7	1	1	544
145	go	6	13	1	1	559
146	nogo	3	10	0	1	n/a
147	go	1	7	1	1	593
148	go	5	16	1	1	421
149	go	5	16	1	1	743
150	go	4	10	1	1	600
151	go	6	4	1	1	642
152	go	4	16	1	1	585
153	go	5	7	1	1	645
154	go	5	4	1	1	517
155	go	6	4	1	1	509
156	go	2	4	1	1	549
157	nogo	3	10	0	1	n/a
158	go	8	13	1	1	515
159	nogo	3	7	0	1	n/a
160	go	1	16	1	1	500
161	go	9	10	1	1	568
162	nogo	3	10	0	1	n/a
163	go	2	4	1	1	349
164	go	7	13	1	1	523
165	go	6	13	1	1	579
166	go	6	13	1	1	508
167	go	2	4	1	1	562
168	go	2	13	1	1	584
169	go	8	4	1	1	598
170	go	8	4	1	1	613
171	go	6	13	1	1	554
172	nogo	3	16	0	1	n/a
173	go	2	16	1	1	551
174	go	1	10	1	1	611
175	go	6	10	1	1	603
176	go	1	16	1	1	370
177	nogo	3	13	1	0	306
178	go	1	10	1	1	648
179	go	7	16	1	1	912
180	go	2	13	1	1	656
181	go	9	13	1	1	581
182	go	9	4	1	1	601
183	go	8	10	1	1	573
184	go	7	7	1	1	474
185	go	2	7	1	1	624
186	go	7	7	1	1	532
187	go	9	7	1	1	548
188	go	7	7	1	1	634
189	go	1	16	1	1	477
190	go	4	13	1	1	367
191	go	8	16	1	1	405
192	go	5	4	1	1	566
193	go	9	4	1	1	537
194	go	5	13	1	1	551
195	go	6	10	1	1	518
196	go	9	13	1	1	609
197	nogo	3	13	0	1	n/a
198	go	9	10	1	1	509
199	go	8	4	1	1	637
200	go	7	7	1	1	584
201	nogo	3	16	0	1	n/a
202	go	4	7	1	1	475
203	nogo	3	7	0	1	n/a
204	go	1	10	1	1	313
205	go	6	7	1	1	543
206	go	5	4	1	1	603
207	go	9	4	1	1	572
208	go	2	7	1	1	632
209	go	7	4	1	1	604
210	go	7	4	1	1	426
211	go	1	16	1	1	511
212	go	8	13	1	1	329
213	go	7	10	1	1	596
214	go	1	4	1	1	559
215	go	7	16	1	1	526
216	nogo	3	16	0	1	n/a
217	nogo	3	7	0	1	n/a
218	go	2	10	1	1	468
219	go	2	4	1	1	584
220	go	7	7	1	1	689
221	go	5	16	1	1	562
222	nogo	3	4	0	1	n/a
223	go	7	4	1	1	401
224	go	8	13	1	1	597
225	go	9	7	1	1	454
