trial	trial_type	stimulus	fontsize	response	accuracy	reactiontime
1	go	1	4	1	1	1056
2	go	4	10	1	1	407
3	go	1	7	1	1	423
4	go	1	4	1	1	415
5	go	5	16	1	1	466
6	go	1	7	1	1	427
7	go	8	4	1	1	445
8	go	6	10	1	1	424
9	go	5	16	1	1	394
10	go	7	4	1	1	428
11	go	7	13	1	1	402
12	go	9	16	1	1	371
13	go	2	4	1	1	432
14	nogo	3	10	0	1	n/a
15	go	8	10	1	1	531
16	go	5	13	1	1	234
17	go	5	10	1	1	315
18	go	6	13	1	1	303
19	go	1	4	1	1	281
20	go	8	16	1	1	154
21	go	9	7	1	1	298
22	go	8	13	1	1	316
23	go	2	13	1	1	375
24	go	7	16	1	1	355
25	go	6	7	1	1	304
26	go	4	13	1	1	333
27	go	8	16	1	1	314
28	go	6	10	1	1	376
29	go	8	16	1	1	307
30	go	2	10	1	1	253
31	go	9	10	1	1	303
32	go	8	13	1	1	335
33	go	9	13	1	1	345
34	go	5	7	1	1	269
35	go	2	7	1	1	333
36	go	4	10	1	1	372
37	nogo	3	4	1	0	340
38	go	5	13	1	1	357
39	go	5	10	1	1	323
40	go	6	7	1	1	311
41	nogo	3	10	1	0	306
42	go	2	7	1	1	338
43	go	7	16	1	1	466
44	go	5	13	1	1	447
45	go	7	16	1	1	259
46	go	8	10	1	1	302
47	go	2	4	1	1	495
48	go	7	4	1	1	372
49	go	4	10	1	1	341
50	go	1	7	1	1	379
51	nogo	3	4	0	1	n/a
52	go	7	7	1	1	580
53	go	4	16	1	1	255
54	go	6	16	1	1	318
55	go	4	7	1	1	324
56	go	8	4	1	1	336
57	go	8	7	1	1	344
58	go	4	10	1	1	359
59	go	1	13	1	1	397
60	go	9	4	1	1	401
61	go	9	4	1	1	347
62	go	4	4	1	1	338
63	go	8	7	1	1	389
64	go	2	16	1	1	348
65	go	2	7	1	1	311
66	go	8	4	1	1	382
67	go	7	13	1	1	387
68	nogo	3	16	1	0	344
69	go	4	4	1	1	56
70	go	7	10	0	0	n/a
71	go	1	13	1	1	487
72	go	4	16	1	1	301
73	nogo	3	16	1	0	254
74	go	5	13	1	1	470
75	go	9	7	1	1	446
76	go	8	4	1	1	404
77	go	4	16	1	1	329
78	go	7	10	1	1	344
79	go	4	16	1	1	336
80	go	1	13	1	1	247
81	go	2	10	1	1	321
82	go	6	10	1	1	336
83	go	6	16	1	1	385
84	go	4	10	1	1	343
85	go	6	4	1	1	314
86	go	6	13	1	1	351
87	go	9	7	1	1	321
88	go	9	16	1	1	321
89	go	7	13	1	1	396
90	go	6	10	1	1	331
91	go	4	10	1	1	313
92	go	1	13	1	1	351
93	go	7	10	1	1	335
94	nogo	3	7	0	1	n/a
95	nogo	3	7	1	0	343
96	go	9	7	1	1	385
97	go	8	10	1	1	319
98	go	2	16	1	1	341
99	go	7	16	1	1	326
100	go	6	4	1	1	425
101	go	6	13	1	1	262
102	go	1	10	1	1	258
103	go	9	16	1	1	405
104	go	9	7	1	1	351
105	nogo	3	4	1	0	422
106	go	1	13	1	1	34
107	go	4	7	1	1	343
108	go	1	13	1	1	445
109	go	1	4	1	1	473
110	go	2	7	1	1	408
111	nogo	3	16	1	0	355
112	go	6	7	1	1	312
113	go	8	7	1	1	328
114	go	5	10	1	1	325
115	go	9	10	1	1	312
116	nogo	3	13	1	0	346
117	go	9	16	1	1	55
118	go	5	16	0	0	n/a
119	go	5	13	1	1	670
120	go	4	16	1	1	246
121	go	2	4	1	1	242
122	go	6	7	1	1	447
123	go	8	4	1	1	307
124	nogo	3	13	1	0	680
125	go	8	16	0	0	n/a
126	go	4	16	1	1	635
127	go	4	10	1	1	534
128	go	2	7	1	1	501
129	go	5	16	1	1	704
130	go	2	13	1	1	674
131	go	1	13	1	1	578
132	go	1	4	1	1	684
133	go	5	7	1	1	446
134	go	9	4	1	1	757
135	go	5	7	1	1	705
136	go	4	7	1	1	607
137	go	5	4	1	1	668
138	nogo	3	4	0	1	n/a
139	go	4	7	1	1	840
140	go	2	10	1	1	695
141	go	5	16	1	1	619
142	go	6	13	1	1	545
143	go	9	4	1	1	484
144	go	4	7	1	1	665
145	go	6	13	1	1	634
146	nogo	3	4	0	1	n/a
147	go	1	10	1	1	627
148	go	5	10	1	1	365
149	go	5	13	1	1	640
150	go	4	10	1	1	638
151	go	6	10	1	1	406
152	go	4	4	1	1	667
153	go	5	13	1	1	494
154	go	5	4	1	1	675
155	go	6	4	1	1	455
156	go	2	4	1	1	547
157	nogo	3	16	1	0	405
158	go	8	16	1	1	10
159	nogo	3	13	0	1	n/a
160	go	1	10	1	1	820
161	go	9	7	1	1	672
162	nogo	3	16	0	1	n/a
163	go	2	7	1	1	646
164	go	7	4	1	1	639
165	go	6	10	1	1	653
166	go	6	16	1	1	647
167	go	2	10	1	1	680
168	go	2	4	1	1	676
169	go	8	16	1	1	647
170	go	8	16	1	1	639
171	go	6	10	1	1	474
172	nogo	3	7	0	1	n/a
173	go	2	7	1	1	1008
174	go	1	10	1	1	615
175	go	6	13	1	1	627
176	go	1	7	1	1	664
177	nogo	3	4	0	1	n/a
178	go	1	10	1	1	950
179	go	7	7	1	1	477
180	go	2	4	1	1	638
181	go	9	13	1	1	428
182	go	9	10	1	1	352
183	go	8	16	1	1	377
184	go	7	16	1	1	385
185	go	2	16	1	1	646
186	go	7	13	1	1	457
187	go	9	4	1	1	439
188	go	7	4	1	1	645
189	go	1	13	1	1	521
190	go	4	7	1	1	464
191	go	8	10	1	1	408
192	go	5	10	1	1	333
193	go	9	16	1	1	460
194	go	5	13	1	1	340
195	go	6	7	1	1	378
196	go	9	10	1	1	301
197	nogo	3	7	0	1	n/a
198	go	9	16	1	1	691
199	go	8	4	1	1	685
200	go	7	16	1	1	566
201	nogo	3	13	0	1	n/a
202	go	4	4	1	1	791
203	nogo	3	13	0	1	n/a
204	go	1	13	1	1	831
205	go	6	4	1	1	708
206	go	5	13	1	1	706
207	go	9	13	1	1	637
208	go	2	16	1	1	721
209	go	7	13	1	1	622
210	go	7	10	1	1	638
211	go	1	10	1	1	558
212	go	8	7	1	1	468
213	go	7	4	1	1	487
214	go	1	13	1	1	412
215	go	7	7	1	1	439
216	nogo	3	16	0	1	n/a
217	nogo	3	7	0	1	n/a
218	go	2	16	1	1	778
219	go	2	10	1	1	338
220	go	7	4	1	1	362
221	go	5	4	1	1	376
222	nogo	3	13	1	0	369
223	go	7	13	1	1	78
224	go	8	7	1	1	758
225	go	9	7	1	1	380
