trial	trial_type	stimulus	fontsize	response	accuracy	reactiontime
1	go	1	16	1	1	580
2	go	4	16	1	1	674
3	go	1	13	1	1	402
4	go	1	10	1	1	169
5	go	5	16	0	0	n/a
6	go	1	10	1	1	190
7	go	8	13	1	1	27
8	go	6	10	1	1	1002
9	go	5	13	1	1	972
10	go	7	10	1	1	1034
11	go	7	7	1	1	1029
12	go	9	7	1	1	953
13	go	2	16	1	1	902
14	nogo	3	13	0	1	n/a
15	go	8	10	1	1	530
16	go	5	16	1	1	388
17	go	5	13	1	1	264
18	go	6	7	1	1	396
19	go	1	4	1	1	591
20	go	8	4	1	1	376
21	go	9	7	1	1	711
22	go	8	13	1	1	523
23	go	2	7	1	1	791
24	go	7	13	1	1	679
25	go	6	16	1	1	435
26	go	4	10	1	1	294
27	go	8	10	1	1	321
28	go	6	10	1	1	299
29	go	8	16	1	1	214
30	go	2	10	1	1	24
31	go	9	7	0	0	n/a
32	go	8	13	1	1	173
33	go	9	13	1	1	212
34	go	5	7	1	1	231
35	go	2	10	1	1	282
36	go	4	16	1	1	365
37	nogo	3	7	1	0	118
38	go	5	10	1	1	394
39	go	5	10	1	1	611
40	go	6	16	1	1	412
41	nogo	3	16	1	0	417
42	go	2	10	1	1	652
43	go	7	13	1	1	562
44	go	5	7	1	1	674
45	go	7	7	1	1	478
46	go	8	16	1	1	637
47	go	2	4	1	1	325
48	go	7	10	1	1	409
49	go	4	16	1	1	414
50	go	1	4	1	1	388
51	nogo	3	10	1	0	701
52	go	7	10	1	1	789
53	go	4	10	1	1	760
54	go	6	4	1	1	780
55	go	4	16	1	1	796
56	go	8	16	1	1	743
57	go	8	7	1	1	601
58	go	4	4	1	1	1021
59	go	1	16	1	1	856
60	go	9	7	1	1	623
61	go	9	4	1	1	683
62	go	4	7	1	1	833
63	go	8	7	1	1	782
64	go	2	4	1	1	751
65	go	2	10	1	1	720
66	go	8	16	1	1	690
67	go	7	4	1	1	778
68	nogo	3	7	0	1	n/a
69	go	4	10	1	1	454
70	go	7	13	1	1	696
71	go	1	7	1	1	829
72	go	4	7	1	1	820
73	nogo	3	7	0	1	n/a
74	go	5	16	1	1	326
75	go	9	13	1	1	417
76	go	8	13	1	1	486
77	go	4	10	1	1	620
78	go	7	16	1	1	539
79	go	4	10	1	1	483
80	go	1	7	1	1	643
81	go	2	4	1	1	660
82	go	6	13	1	1	476
83	go	6	7	1	1	359
84	go	4	4	1	1	416
85	go	6	16	1	1	459
86	go	6	13	1	1	400
87	go	9	16	1	1	561
88	go	9	7	1	1	396
89	go	7	7	1	1	328
90	go	6	10	1	1	444
91	go	4	10	1	1	672
92	go	1	7	1	1	738
93	go	7	13	1	1	573
94	nogo	3	10	0	1	n/a
95	nogo	3	10	1	0	63
96	go	9	4	1	1	607
97	go	8	7	1	1	667
98	go	2	13	1	1	819
99	go	7	7	1	1	817
100	go	6	4	1	1	804
101	go	6	4	1	1	897
102	go	1	13	1	1	1048
103	go	9	7	1	1	1036
104	go	9	4	1	1	1011
105	nogo	3	13	0	1	n/a
106	go	1	16	1	1	614
107	go	4	7	1	1	421
108	go	1	10	1	1	591
109	go	1	10	1	1	545
110	go	2	13	1	1	672
111	nogo	3	7	0	1	n/a
112	go	6	7	1	1	393
113	go	8	10	1	1	381
114	go	5	16	1	1	415
115	go	9	7	1	1	349
116	nogo	3	13	1	0	319
117	go	9	16	1	1	437
118	go	5	4	1	1	652
119	go	5	16	1	1	403
120	go	4	10	1	1	417
121	go	2	4	1	1	590
122	go	6	13	1	1	455
123	go	8	7	1	1	489
124	nogo	3	13	1	0	306
125	go	8	13	1	1	754
126	go	4	16	1	1	593
127	go	4	4	1	1	674
128	go	2	7	1	1	714
129	go	5	4	1	1	592
130	go	2	16	1	1	652
131	go	1	16	1	1	670
132	go	1	4	1	1	368
133	go	5	13	1	1	292
134	go	9	16	1	1	352
135	go	5	4	1	1	201
136	go	4	13	1	1	123
137	go	5	4	1	1	48
138	nogo	3	16	1	0	729
139	go	4	16	0	0	n/a
140	go	2	7	1	1	2
141	go	5	16	0	0	n/a
142	go	6	4	1	1	183
143	go	9	7	1	1	111
144	go	4	13	1	1	228
145	go	6	13	1	1	107
146	nogo	3	4	0	1	n/a
147	go	1	16	1	1	611
148	go	5	7	1	1	372
149	go	5	4	1	1	214
150	go	4	4	1	1	1118
151	go	6	13	0	0	n/a
152	go	4	13	0	0	n/a
153	go	5	13	1	1	59
154	go	5	16	1	1	165
155	go	6	4	1	1	237
156	go	2	7	1	1	180
157	nogo	3	10	0	1	n/a
158	go	8	13	1	1	381
159	nogo	3	13	1	0	304
160	go	1	10	1	1	647
161	go	9	10	1	1	327
162	nogo	3	4	1	0	197
163	go	2	7	1	1	627
164	go	7	13	1	1	668
165	go	6	7	1	1	339
166	go	6	7	1	1	323
167	go	2	13	1	1	275
168	go	2	4	1	1	469
169	go	8	7	1	1	359
170	go	8	10	1	1	326
171	go	6	16	1	1	405
172	nogo	3	4	1	0	238
173	go	2	10	1	1	871
174	go	1	10	1	1	770
175	go	6	7	1	1	786
176	go	1	4	1	1	689
177	nogo	3	4	0	1	n/a
178	go	1	4	1	1	317
179	go	7	16	1	1	308
180	go	2	13	1	1	370
181	go	9	16	1	1	155
182	go	9	4	0	0	n/a
183	go	8	7	1	1	974
184	go	7	10	0	0	n/a
185	go	2	13	1	1	269
186	go	7	10	1	1	435
187	go	9	7	1	1	252
188	go	7	10	1	1	57
189	go	1	10	1	1	236
190	go	4	13	1	1	230
191	go	8	16	1	1	302
192	go	5	16	1	1	280
193	go	9	13	1	1	381
194	go	5	13	1	1	543
195	go	6	4	1	1	856
196	go	9	4	1	1	1076
197	nogo	3	4	0	1	n/a
198	go	9	4	1	1	642
199	go	8	10	1	1	702
200	go	7	10	1	1	655
201	nogo	3	4	1	0	901
202	go	4	4	0	0	n/a
203	nogo	3	16	1	0	258
204	go	1	13	1	1	752
205	go	6	16	1	1	675
206	go	5	13	1	1	642
207	go	9	4	1	1	637
208	go	2	16	1	1	652
209	go	7	7	1	1	476
210	go	7	4	1	1	794
211	go	1	10	1	1	787
212	go	8	10	1	1	531
213	go	7	7	1	1	457
214	go	1	10	1	1	299
215	go	7	10	1	1	184
216	nogo	3	16	0	1	n/a
217	nogo	3	13	1	0	636
218	go	2	4	1	1	656
219	go	2	13	1	1	380
220	go	7	16	1	1	209
221	go	5	4	1	1	311
222	nogo	3	13	0	1	n/a
223	go	7	16	0	0	n/a
224	go	8	16	1	1	54
225	go	9	4	1	1	216
