trial	trial_type	stimulus	fontsize	response	accuracy	reactiontime
1	go	1	13	1	1	836
2	go	4	7	1	1	515
3	go	1	13	1	1	441
4	go	1	4	1	1	387
5	go	5	4	1	1	515
6	go	1	16	1	1	754
7	go	8	4	1	1	814
8	go	6	16	1	1	850
9	go	5	13	1	1	845
10	go	7	13	1	1	747
11	go	7	16	1	1	875
12	go	9	16	1	1	846
13	go	2	4	1	1	905
14	nogo	3	16	0	1	n/a
15	go	8	10	1	1	535
16	go	5	4	1	1	646
17	go	5	10	1	1	819
18	go	6	7	1	1	834
19	go	1	13	1	1	773
20	go	8	10	1	1	819
21	go	9	7	1	1	834
22	go	8	10	1	1	940
23	go	2	10	1	1	863
24	go	7	16	1	1	744
25	go	6	7	1	1	1029
26	go	4	13	1	1	818
27	go	8	10	1	1	766
28	go	6	13	1	1	645
29	go	8	13	1	1	750
30	go	2	4	1	1	721
31	go	9	4	1	1	802
32	go	8	7	1	1	885
33	go	9	7	1	1	811
34	go	5	7	1	1	825
35	go	2	16	1	1	863
36	go	4	10	1	1	721
37	nogo	3	10	0	1	n/a
38	go	5	13	1	1	938
39	go	5	4	1	1	610
40	go	6	4	1	1	673
41	nogo	3	10	0	1	n/a
42	go	2	10	1	1	575
43	go	7	7	1	1	589
44	go	5	4	1	1	628
45	go	7	10	1	1	643
46	go	8	16	1	1	589
47	go	2	4	1	1	767
48	go	7	13	1	1	831
49	go	4	4	1	1	867
50	go	1	10	1	1	882
51	nogo	3	10	0	1	n/a
52	go	7	10	1	1	920
53	go	4	4	1	1	817
54	go	6	16	1	1	811
55	go	4	7	1	1	804
56	go	8	10	1	1	796
57	go	8	16	1	1	879
58	go	4	13	1	1	984
59	go	1	7	1	1	999
60	go	9	13	1	1	992
61	go	9	16	1	1	1024
62	go	4	7	1	1	885
63	go	8	4	1	1	968
64	go	2	4	1	1	894
65	go	2	4	1	1	976
66	go	8	16	1	1	811
67	go	7	16	1	1	825
68	nogo	3	10	0	1	n/a
69	go	4	13	1	1	492
70	go	7	16	1	1	651
71	go	1	16	1	1	711
72	go	4	10	1	1	728
73	nogo	3	10	0	1	n/a
74	go	5	4	1	1	717
75	go	9	13	1	1	574
76	go	8	13	1	1	504
77	go	4	10	1	1	702
78	go	7	10	1	1	738
79	go	4	7	1	1	707
80	go	1	7	1	1	881
81	go	2	10	1	1	941
82	go	6	13	1	1	866
83	go	6	13	1	1	904
84	go	4	16	1	1	805
85	go	6	13	1	1	752
86	go	6	7	1	1	857
87	go	9	10	1	1	827
88	go	9	13	1	1	797
89	go	7	16	1	1	722
90	go	6	4	1	1	759
91	go	4	13	1	1	694
92	go	1	16	1	1	745
93	go	7	7	1	1	714
94	nogo	3	10	0	1	n/a
95	nogo	3	16	0	1	n/a
96	go	9	13	1	1	1001
97	go	8	7	1	1	724
98	go	2	4	1	1	717
99	go	7	7	1	1	733
100	go	6	4	1	1	769
101	go	6	16	1	1	739
102	go	1	7	1	1	709
103	go	9	16	1	1	518
104	go	9	13	1	1	537
105	nogo	3	13	0	1	n/a
106	go	1	10	1	1	828
107	go	4	7	1	1	751
108	go	1	10	1	1	720
109	go	1	7	1	1	629
110	go	2	13	1	1	695
111	nogo	3	13	0	1	n/a
112	go	6	16	1	1	1003
113	go	8	13	1	1	655
114	go	5	10	1	1	784
115	go	9	16	1	1	686
116	nogo	3	13	0	1	n/a
117	go	9	7	1	1	929
118	go	5	16	1	1	646
119	go	5	7	1	1	778
120	go	4	4	1	1	744
121	go	2	4	1	1	742
122	go	6	4	1	1	824
123	go	8	4	1	1	840
124	nogo	3	16	0	1	n/a
125	go	8	10	0	0	n/a
126	go	4	10	1	1	671
127	go	4	7	1	1	551
128	go	2	7	1	1	520
129	go	5	4	1	1	582
130	go	2	7	1	1	529
131	go	1	13	1	1	549
132	go	1	13	1	1	747
133	go	5	13	1	1	692
134	go	9	16	1	1	686
135	go	5	10	1	1	751
136	go	4	13	1	1	787
137	go	5	10	1	1	849
138	nogo	3	13	0	1	n/a
139	go	4	10	1	1	675
140	go	2	13	1	1	600
141	go	5	4	1	1	682
142	go	6	4	1	1	696
143	go	9	7	1	1	734
144	go	4	13	1	1	683
145	go	6	16	1	1	720
146	nogo	3	4	0	1	n/a
147	go	1	4	1	1	961
148	go	5	10	1	1	614
149	go	5	16	1	1	652
150	go	4	10	1	1	620
151	go	6	4	1	1	725
152	go	4	4	1	1	763
153	go	5	7	1	1	913
154	go	5	7	1	1	816
155	go	6	10	1	1	717
156	go	2	16	1	1	668
157	nogo	3	4	0	1	n/a
158	go	8	7	1	1	611
159	nogo	3	7	0	1	n/a
160	go	1	7	0	0	n/a
161	go	9	7	1	1	760
162	nogo	3	4	0	1	n/a
163	go	2	4	1	1	985
164	go	7	4	1	1	635
165	go	6	7	1	1	651
166	go	6	16	1	1	664
167	go	2	13	1	1	703
168	go	2	10	1	1	697
169	go	8	16	1	1	687
170	go	8	13	1	1	723
171	go	6	16	1	1	671
172	nogo	3	7	0	1	n/a
173	go	2	4	1	1	847
174	go	1	16	1	1	634
175	go	6	13	1	1	670
176	go	1	7	1	1	640
177	nogo	3	16	0	1	n/a
178	go	1	13	1	1	788
179	go	7	16	1	1	707
180	go	2	4	1	1	651
181	go	9	4	1	1	670
182	go	9	16	1	1	732
183	go	8	7	1	1	768
184	go	7	10	1	1	692
185	go	2	7	1	1	527
186	go	7	4	1	1	560
187	go	9	16	1	1	558
188	go	7	7	1	1	640
189	go	1	4	1	1	677
190	go	4	13	1	1	737
191	go	8	13	1	1	685
192	go	5	10	1	1	609
193	go	9	16	1	1	624
194	go	5	4	1	1	707
195	go	6	7	1	1	655
196	go	9	7	1	1	647
197	nogo	3	16	0	1	n/a
198	go	9	16	1	1	1024
199	go	8	10	1	1	517
200	go	7	7	1	1	578
201	nogo	3	13	0	1	n/a
202	go	4	10	1	1	661
203	nogo	3	7	0	1	n/a
204	go	1	10	1	1	703
205	go	6	16	1	1	497
206	go	5	16	1	1	630
207	go	9	16	1	1	669
208	go	2	13	1	1	750
209	go	7	10	1	1	718
210	go	7	4	1	1	829
211	go	1	4	1	1	749
212	go	8	10	1	1	855
213	go	7	4	1	1	779
214	go	1	7	1	1	681
215	go	7	16	1	1	697
216	nogo	3	13	0	1	n/a
217	nogo	3	16	0	1	n/a
218	go	2	4	1	1	680
219	go	2	7	1	1	695
220	go	7	13	1	1	644
221	go	5	10	1	1	658
222	nogo	3	13	0	1	n/a
223	go	7	10	1	1	604
224	go	8	10	1	1	623
225	go	9	7	1	1	685
