trial	response	correct_response	accuracy	reaction_time
1	k	k	1	1100
2	n/a	j	0	n/a
3	k	k	1	1088
4	j	j	1	936
5	l	j	0	687
6	l	k	0	749
7	k	k	1	1179
8	j	j	1	811
9	l	l	1	1177
10	l	k	0	819
11	l	l	1	1522
12	k	k	1	1191
13	j	j	1	1059
14	l	l	1	903
15	l	l	1	884
16	l	l	1	808
17	l	l	1	1572
18	k	k	1	1003
19	j	j	1	757
20	l	l	1	830
