trial	trial_type	stimulus	fontsize	response	accuracy	reactiontime
1	go	1	16	1	1	1012
2	go	4	13	1	1	571
3	go	1	13	1	1	360
4	go	1	13	1	1	325
5	go	5	16	1	1	458
6	go	1	16	1	1	405
7	go	8	13	1	1	387
8	go	6	16	1	1	321
9	go	5	10	1	1	360
10	go	7	10	1	1	354
11	go	7	10	1	1	342
12	go	9	16	1	1	348
13	go	2	4	1	1	357
14	nogo	3	7	0	1	n/a
15	go	8	7	1	1	390
16	go	5	13	1	1	373
17	go	5	13	1	1	374
18	go	6	4	1	1	435
19	go	1	16	1	1	404
20	go	8	4	1	1	396
21	go	9	7	1	1	451
22	go	8	7	1	1	421
23	go	2	10	1	1	391
24	go	7	4	1	1	403
25	go	6	4	1	1	573
26	go	4	4	1	1	438
27	go	8	16	1	1	498
28	go	6	16	1	1	417
29	go	8	7	1	1	488
30	go	2	10	1	1	389
31	go	9	7	1	1	377
32	go	8	16	1	1	391
33	go	9	4	1	1	411
34	go	5	16	1	1	399
35	go	2	16	1	1	460
36	go	4	7	1	1	396
37	nogo	3	7	0	1	n/a
38	go	5	4	1	1	374
39	go	5	4	1	1	414
40	go	6	10	1	1	416
41	nogo	3	4	1	0	396
42	go	2	10	1	1	467
43	go	7	7	1	1	435
44	go	5	16	1	1	363
45	go	7	16	1	1	398
46	go	8	10	1	1	418
47	go	2	13	1	1	438
48	go	7	16	1	1	447
49	go	4	7	1	1	394
50	go	1	10	1	1	398
51	nogo	3	4	0	1	n/a
52	go	7	13	1	1	366
53	go	4	10	1	1	427
54	go	6	10	1	1	370
55	go	4	13	1	1	362
56	go	8	7	1	1	470
57	go	8	7	1	1	464
58	go	4	13	1	1	413
59	go	1	4	1	1	516
60	go	9	4	1	1	430
61	go	9	4	1	1	423
62	go	4	13	1	1	511
63	go	8	10	1	1	454
64	go	2	16	1	1	435
65	go	2	7	1	1	410
66	go	8	13	1	1	469
67	go	7	4	1	1	425
68	nogo	3	7	1	0	444
69	go	4	7	1	1	401
70	go	7	10	1	1	551
71	go	1	13	1	1	591
72	go	4	10	1	1	543
73	nogo	3	10	0	1	n/a
74	go	5	13	1	1	365
75	go	9	10	1	1	448
76	go	8	13	1	1	535
77	go	4	7	1	1	456
78	go	7	4	1	1	357
79	go	4	10	1	1	451
80	go	1	13	1	1	486
81	go	2	7	1	1	420
82	go	6	4	1	1	456
83	go	6	7	1	1	451
84	go	4	13	1	1	438
85	go	6	7	1	1	501
86	go	6	4	1	1	607
87	go	9	4	1	1	555
88	go	9	16	1	1	514
89	go	7	4	1	1	495
90	go	6	16	1	1	465
91	go	4	10	1	1	661
92	go	1	13	1	1	494
93	go	7	16	1	1	460
94	nogo	3	13	0	1	n/a
95	nogo	3	13	1	0	389
96	go	9	16	1	1	426
97	go	8	7	1	1	528
98	go	2	4	1	1	461
99	go	7	13	1	1	397
100	go	6	4	1	1	437
101	go	6	16	1	1	428
102	go	1	10	1	1	454
103	go	9	16	1	1	535
104	go	9	4	1	1	664
105	nogo	3	16	0	1	n/a
106	go	1	10	1	1	497
107	go	4	10	1	1	467
108	go	1	13	1	1	473
109	go	1	4	1	1	464
110	go	2	16	1	1	435
111	nogo	3	16	0	1	n/a
112	go	6	16	1	1	480
113	go	8	13	1	1	540
114	go	5	7	1	1	601
115	go	9	4	1	1	454
116	nogo	3	4	0	1	n/a
117	go	9	13	1	1	471
118	go	5	13	1	1	442
119	go	5	13	1	1	360
120	go	4	13	1	1	375
121	go	2	16	1	1	437
122	go	6	7	1	1	440
123	go	8	13	1	1	353
124	nogo	3	7	1	0	379
125	go	8	7	1	1	546
126	go	4	13	1	1	657
127	go	4	10	1	1	436
128	go	2	10	1	1	360
129	go	5	16	1	1	330
130	go	2	4	1	1	380
131	go	1	7	1	1	452
132	go	1	13	1	1	397
133	go	5	16	1	1	695
134	go	9	4	1	1	382
135	go	5	13	1	1	398
136	go	4	16	1	1	446
137	go	5	16	1	1	476
138	nogo	3	4	0	1	n/a
139	go	4	10	1	1	497
140	go	2	4	1	1	401
141	go	5	7	1	1	393
142	go	6	16	1	1	415
143	go	9	13	1	1	401
144	go	4	7	1	1	384
145	go	6	10	1	1	358
146	nogo	3	7	1	0	413
147	go	1	7	1	1	508
148	go	5	13	1	1	495
149	go	5	13	1	1	904
150	go	4	7	1	1	513
151	go	6	13	1	1	481
152	go	4	10	1	1	442
153	go	5	10	1	1	457
154	go	5	4	1	1	527
155	go	6	13	1	1	434
156	go	2	16	1	1	371
157	nogo	3	7	0	1	n/a
158	go	8	4	1	1	430
159	nogo	3	10	0	1	n/a
160	go	1	7	1	1	338
161	go	9	4	1	1	396
162	nogo	3	7	0	1	n/a
163	go	2	4	1	1	399
164	go	7	16	1	1	497
165	go	6	4	1	1	474
166	go	6	4	1	1	511
167	go	2	10	1	1	639
168	go	2	4	1	1	518
169	go	8	4	1	1	603
170	go	8	7	1	1	525
171	go	6	4	1	1	542
172	nogo	3	7	0	1	n/a
173	go	2	7	1	1	437
174	go	1	4	1	1	463
175	go	6	10	1	1	468
176	go	1	16	1	1	460
177	nogo	3	7	0	1	n/a
178	go	1	13	1	1	574
179	go	7	4	1	1	498
180	go	2	10	1	1	513
181	go	9	10	1	1	440
182	go	9	16	1	1	475
183	go	8	7	1	1	448
184	go	7	7	1	1	382
185	go	2	10	1	1	455
186	go	7	13	1	1	467
187	go	9	13	1	1	451
188	go	7	10	1	1	409
189	go	1	4	1	1	402
190	go	4	16	1	1	457
191	go	8	10	1	1	498
192	go	5	7	1	1	559
193	go	9	4	1	1	479
194	go	5	10	1	1	480
195	go	6	10	1	1	491
196	go	9	4	1	1	550
197	nogo	3	10	0	1	n/a
198	go	9	4	1	1	494
199	go	8	16	1	1	540
200	go	7	16	1	1	485
201	nogo	3	13	1	0	424
202	go	4	10	1	1	518
203	nogo	3	10	1	0	421
204	go	1	10	1	1	704
205	go	6	7	1	1	534
206	go	5	16	1	1	427
207	go	9	16	1	1	437
208	go	2	16	1	1	353
209	go	7	7	1	1	213
210	go	7	7	1	1	232
211	go	1	13	1	1	331
212	go	8	16	1	1	392
213	go	7	7	1	1	407
214	go	1	13	1	1	493
215	go	7	13	1	1	438
216	nogo	3	16	0	1	n/a
217	nogo	3	10	0	1	n/a
218	go	2	16	1	1	505
219	go	2	10	1	1	402
220	go	7	16	1	1	372
221	go	5	7	1	1	443
222	nogo	3	10	0	1	n/a
223	go	7	13	1	1	484
224	go	8	13	1	1	406
225	go	9	10	1	1	500
