trial	trial_type	stimulus	fontsize	response	accuracy	reactiontime
1	go	1	13	1	1	521
2	go	4	7	1	1	447
3	go	1	7	1	1	482
4	go	1	16	1	1	453
5	go	5	13	1	1	536
6	go	1	10	1	1	421
7	go	8	16	1	1	532
8	go	6	4	1	1	546
9	go	5	10	1	1	393
10	go	7	4	1	1	331
11	go	7	4	1	1	276
12	go	9	4	1	1	249
13	go	2	7	1	1	311
14	nogo	3	4	1	0	326
15	go	8	10	1	1	341
16	go	5	16	1	1	362
17	go	5	13	1	1	277
18	go	6	10	1	1	264
19	go	1	10	1	1	337
20	go	8	7	1	1	355
21	go	9	4	1	1	421
22	go	8	13	1	1	426
23	go	2	4	1	1	350
24	go	7	10	1	1	388
25	go	6	16	1	1	301
26	go	4	7	1	1	343
27	go	8	16	1	1	366
28	go	6	16	1	1	364
29	go	8	4	1	1	483
30	go	2	13	1	1	359
31	go	9	13	1	1	329
32	go	8	16	1	1	336
33	go	9	16	1	1	336
34	go	5	13	1	1	306
35	go	2	13	1	1	256
36	go	4	10	1	1	304
37	nogo	3	13	1	0	306
38	go	5	16	1	1	240
39	go	5	16	1	1	296
40	go	6	4	1	1	140
41	nogo	3	10	1	0	154
42	go	2	7	1	1	84
43	go	7	7	1	1	252
44	go	5	4	1	1	374
45	go	7	7	1	1	411
46	go	8	7	1	1	248
47	go	2	16	1	1	303
48	go	7	10	1	1	326
49	go	4	10	1	1	410
50	go	1	13	1	1	528
51	nogo	3	16	0	1	n/a
52	go	7	10	1	1	795
53	go	4	4	1	1	538
54	go	6	4	1	1	553
55	go	4	16	1	1	684
56	go	8	4	1	1	567
57	go	8	16	1	1	695
58	go	4	4	1	1	596
59	go	1	7	1	1	522
60	go	9	7	1	1	515
61	go	9	13	1	1	531
62	go	4	10	1	1	543
63	go	8	10	1	1	530
64	go	2	7	1	1	572
65	go	2	4	1	1	550
66	go	8	10	1	1	386
67	go	7	10	1	1	399
68	nogo	3	13	1	0	366
69	go	4	7	1	1	199
70	go	7	13	1	1	293
71	go	1	7	1	1	315
72	go	4	7	1	1	219
73	nogo	3	16	1	0	282
74	go	5	16	0	0	n/a
75	go	9	7	1	1	256
76	go	8	4	1	1	232
77	go	4	4	1	1	331
78	go	7	10	1	1	460
79	go	4	13	1	1	384
80	go	1	7	1	1	368
81	go	2	7	1	1	437
82	go	6	13	1	1	616
83	go	6	4	1	1	743
84	go	4	13	1	1	601
85	go	6	7	1	1	527
86	go	6	10	1	1	451
87	go	9	10	1	1	590
88	go	9	13	1	1	602
89	go	7	16	1	1	647
90	go	6	16	1	1	708
91	go	4	4	1	1	725
92	go	1	16	1	1	597
93	go	7	4	1	1	529
94	nogo	3	7	0	1	n/a
95	nogo	3	16	0	1	n/a
96	go	9	16	1	1	594
97	go	8	16	1	1	335
98	go	2	16	1	1	378
99	go	7	4	1	1	427
100	go	6	4	1	1	587
101	go	6	16	1	1	624
102	go	1	7	1	1	535
103	go	9	13	1	1	668
104	go	9	10	1	1	638
105	nogo	3	4	0	1	n/a
106	go	1	7	1	1	903
107	go	4	4	1	1	617
108	go	1	4	1	1	590
109	go	1	4	1	1	590
110	go	2	16	1	1	633
111	nogo	3	16	0	1	n/a
112	go	6	10	1	1	578
113	go	8	4	1	1	524
114	go	5	16	1	1	547
115	go	9	10	1	1	591
116	nogo	3	13	0	1	n/a
117	go	9	7	1	1	940
118	go	5	4	1	1	578
119	go	5	16	1	1	572
120	go	4	4	1	1	597
121	go	2	10	1	1	635
122	go	6	7	1	1	606
123	go	8	10	1	1	547
124	nogo	3	13	0	1	n/a
125	go	8	10	1	1	704
126	go	4	10	1	1	452
127	go	4	4	1	1	325
128	go	2	16	1	1	340
129	go	5	10	1	1	303
130	go	2	16	1	1	277
131	go	1	10	1	1	227
132	go	1	7	1	1	298
133	go	5	10	1	1	343
134	go	9	13	1	1	275
135	go	5	4	1	1	85
136	go	4	13	1	1	61
137	go	5	16	1	1	59
138	nogo	3	13	1	0	268
139	go	4	16	1	1	269
140	go	2	7	1	1	370
141	go	5	13	1	1	539
142	go	6	4	1	1	649
143	go	9	16	1	1	715
144	go	4	7	1	1	598
145	go	6	10	1	1	601
146	nogo	3	10	0	1	n/a
147	go	1	7	1	1	732
148	go	5	4	1	1	634
149	go	5	10	1	1	626
150	go	4	7	1	1	598
151	go	6	16	1	1	685
152	go	4	16	1	1	614
153	go	5	13	1	1	626
154	go	5	13	1	1	689
155	go	6	4	1	1	609
156	go	2	10	1	1	433
157	nogo	3	13	0	1	n/a
158	go	8	13	1	1	814
159	nogo	3	7	0	1	n/a
160	go	1	7	1	1	873
161	go	9	13	1	1	860
162	nogo	3	4	0	1	n/a
163	go	2	10	1	1	354
164	go	7	10	1	1	379
165	go	6	10	1	1	354
166	go	6	13	1	1	380
167	go	2	4	1	1	492
168	go	2	16	1	1	558
169	go	8	16	1	1	583
170	go	8	4	1	1	605
171	go	6	13	1	1	591
172	nogo	3	7	0	1	n/a
173	go	2	7	1	1	339
174	go	1	13	1	1	430
175	go	6	7	1	1	533
176	go	1	4	1	1	550
177	nogo	3	13	0	1	n/a
178	go	1	10	1	1	359
179	go	7	7	1	1	544
180	go	2	13	1	1	564
181	go	9	4	1	1	623
182	go	9	7	1	1	591
183	go	8	16	1	1	632
184	go	7	13	1	1	624
185	go	2	7	1	1	729
186	go	7	13	1	1	607
187	go	9	7	1	1	453
188	go	7	13	1	1	448
189	go	1	16	1	1	553
190	go	4	10	1	1	598
191	go	8	16	1	1	634
192	go	5	7	1	1	587
193	go	9	16	1	1	626
194	go	5	13	1	1	640
195	go	6	10	1	1	701
196	go	9	4	1	1	760
197	nogo	3	10	0	1	n/a
198	go	9	16	1	1	1024
199	go	8	7	1	1	562
200	go	7	7	1	1	561
201	nogo	3	4	0	1	n/a
202	go	4	10	1	1	641
203	nogo	3	4	0	1	n/a
204	go	1	10	1	1	685
205	go	6	7	1	1	474
206	go	5	7	1	1	578
207	go	9	16	1	1	571
208	go	2	7	1	1	593
209	go	7	13	1	1	589
210	go	7	4	1	1	589
211	go	1	13	1	1	581
212	go	8	10	1	1	552
213	go	7	13	1	1	595
214	go	1	7	1	1	558
215	go	7	10	1	1	573
216	nogo	3	13	0	1	n/a
217	nogo	3	16	1	0	345
218	go	2	16	1	1	270
219	go	2	13	1	1	306
220	go	7	10	1	1	320
221	go	5	4	1	1	529
222	nogo	3	13	0	1	n/a
223	go	7	10	1	1	1020
224	go	8	13	1	1	521
225	go	9	4	1	1	673
