trial	trial_type	stimulus	fontsize	response	accuracy	reactiontime
1	go	1	7	1	1	705
2	go	4	13	1	1	495
3	go	1	4	1	1	399
4	go	1	13	1	1	435
5	go	5	10	1	1	404
6	go	1	10	1	1	352
7	go	8	10	1	1	389
8	go	6	4	1	1	392
9	go	5	7	1	1	317
10	go	7	16	1	1	303
11	go	7	10	1	1	337
12	go	9	13	1	1	328
13	go	2	7	1	1	411
14	nogo	3	16	0	1	n/a
15	go	8	4	1	1	426
16	go	5	16	1	1	344
17	go	5	16	1	1	308
18	go	6	13	1	1	271
19	go	1	13	1	1	293
20	go	8	4	1	1	330
21	go	9	13	1	1	345
22	go	8	10	1	1	311
23	go	2	10	1	1	354
24	go	7	7	1	1	346
25	go	6	16	1	1	361
26	go	4	10	1	1	352
27	go	8	13	1	1	413
28	go	6	10	1	1	312
29	go	8	13	1	1	333
30	go	2	10	1	1	392
31	go	9	10	1	1	361
32	go	8	16	1	1	377
33	go	9	4	1	1	415
34	go	5	16	1	1	391
35	go	2	4	1	1	377
36	go	4	16	1	1	426
37	nogo	3	13	0	1	n/a
38	go	5	4	1	1	393
39	go	5	7	1	1	466
40	go	6	13	1	1	401
41	nogo	3	7	1	0	345
42	go	2	10	1	1	408
43	go	7	4	1	1	391
44	go	5	7	1	1	370
45	go	7	4	1	1	454
46	go	8	7	1	1	402
47	go	2	4	1	1	396
48	go	7	10	1	1	382
49	go	4	13	1	1	358
50	go	1	10	1	1	391
51	nogo	3	7	1	0	363
52	go	7	10	1	1	558
53	go	4	4	1	1	497
54	go	6	16	1	1	498
55	go	4	16	1	1	355
56	go	8	16	1	1	382
57	go	8	13	1	1	329
58	go	4	13	1	1	415
59	go	1	13	1	1	439
60	go	9	10	1	1	587
61	go	9	13	1	1	581
62	go	4	4	1	1	497
63	go	8	4	1	1	499
64	go	2	4	1	1	537
65	go	2	7	1	1	495
66	go	8	10	1	1	512
67	go	7	16	1	1	458
68	nogo	3	4	0	1	n/a
69	go	4	7	1	1	505
70	go	7	4	1	1	441
71	go	1	13	1	1	469
72	go	4	13	1	1	459
73	nogo	3	7	0	1	n/a
74	go	5	10	1	1	417
75	go	9	13	1	1	426
76	go	8	13	1	1	407
77	go	4	16	1	1	424
78	go	7	16	1	1	415
79	go	4	16	1	1	407
80	go	1	13	1	1	456
81	go	2	13	1	1	415
82	go	6	13	1	1	430
83	go	6	7	1	1	399
84	go	4	16	1	1	438
85	go	6	7	1	1	620
86	go	6	4	1	1	501
87	go	9	16	1	1	555
88	go	9	10	1	1	599
89	go	7	13	1	1	565
90	go	6	10	1	1	580
91	go	4	13	1	1	623
92	go	1	7	1	1	544
93	go	7	4	1	1	476
94	nogo	3	10	0	1	n/a
95	nogo	3	13	0	1	n/a
96	go	9	10	1	1	398
97	go	8	10	1	1	425
98	go	2	7	1	1	348
99	go	7	13	1	1	347
100	go	6	16	1	1	313
101	go	6	13	1	1	318
102	go	1	16	1	1	309
103	go	9	16	1	1	347
104	go	9	16	1	1	362
105	nogo	3	10	0	1	n/a
106	go	1	16	1	1	431
107	go	4	7	1	1	446
108	go	1	13	1	1	348
109	go	1	16	1	1	385
110	go	2	7	1	1	378
111	nogo	3	7	0	1	n/a
112	go	6	10	1	1	402
113	go	8	7	1	1	378
114	go	5	7	1	1	365
115	go	9	13	1	1	380
116	nogo	3	13	1	0	349
117	go	9	10	1	1	454
118	go	5	16	1	1	467
119	go	5	13	1	1	441
120	go	4	7	1	1	478
121	go	2	13	1	1	398
122	go	6	13	1	1	368
123	go	8	13	1	1	360
124	nogo	3	7	0	1	n/a
125	go	8	4	1	1	429
126	go	4	16	1	1	379
127	go	4	4	1	1	415
128	go	2	7	1	1	452
129	go	5	4	1	1	444
130	go	2	4	1	1	472
131	go	1	7	1	1	520
132	go	1	10	1	1	433
133	go	5	16	1	1	403
134	go	9	10	1	1	452
135	go	5	16	1	1	551
136	go	4	13	1	1	433
137	go	5	4	1	1	418
138	nogo	3	4	0	1	n/a
139	go	4	13	1	1	392
140	go	2	4	1	1	363
141	go	5	10	1	1	444
142	go	6	10	1	1	365
143	go	9	4	1	1	427
144	go	4	4	1	1	389
145	go	6	16	1	1	460
146	nogo	3	7	0	1	n/a
147	go	1	7	1	1	372
148	go	5	7	1	1	402
149	go	5	16	1	1	430
150	go	4	7	1	1	537
151	go	6	10	1	1	504
152	go	4	16	1	1	396
153	go	5	10	1	1	401
154	go	5	7	1	1	448
155	go	6	16	1	1	373
156	go	2	4	1	1	302
157	nogo	3	7	1	0	472
158	go	8	10	1	1	384
159	nogo	3	4	0	1	n/a
160	go	1	7	1	1	494
161	go	9	10	1	1	465
162	nogo	3	16	0	1	n/a
163	go	2	10	1	1	376
164	go	7	16	1	1	414
165	go	6	7	1	1	370
166	go	6	16	1	1	510
167	go	2	13	1	1	385
168	go	2	4	1	1	474
169	go	8	10	1	1	399
170	go	8	7	1	1	506
171	go	6	7	1	1	406
172	nogo	3	7	1	0	375
173	go	2	7	1	1	436
174	go	1	16	1	1	406
175	go	6	10	1	1	397
176	go	1	4	1	1	436
177	nogo	3	4	0	1	n/a
178	go	1	4	1	1	392
179	go	7	16	1	1	432
180	go	2	16	1	1	401
181	go	9	13	1	1	426
182	go	9	13	1	1	442
183	go	8	10	1	1	457
184	go	7	7	1	1	394
185	go	2	7	1	1	374
186	go	7	16	1	1	467
187	go	9	4	1	1	433
188	go	7	4	1	1	408
189	go	1	4	1	1	441
190	go	4	10	1	1	483
191	go	8	16	1	1	420
192	go	5	7	1	1	437
193	go	9	4	1	1	460
194	go	5	16	1	1	497
195	go	6	13	1	1	446
196	go	9	4	1	1	435
197	nogo	3	16	0	1	n/a
198	go	9	7	1	1	429
199	go	8	10	1	1	393
200	go	7	4	1	1	412
201	nogo	3	16	0	1	n/a
202	go	4	10	1	1	416
203	nogo	3	7	0	1	n/a
204	go	1	10	1	1	471
205	go	6	13	1	1	507
206	go	5	4	1	1	573
207	go	9	4	1	1	564
208	go	2	7	1	1	417
209	go	7	7	1	1	454
210	go	7	10	1	1	458
211	go	1	10	1	1	447
212	go	8	7	1	1	556
213	go	7	13	1	1	471
214	go	1	4	1	1	440
215	go	7	13	1	1	454
216	nogo	3	16	0	1	n/a
217	nogo	3	4	0	1	n/a
218	go	2	13	1	1	387
219	go	2	13	1	1	396
220	go	7	10	1	1	313
221	go	5	16	1	1	358
222	nogo	3	16	1	0	350
223	go	7	4	1	1	366
224	go	8	4	1	1	403
225	go	9	10	1	1	396
