trial	trial_type	stimulus	fontsize	response	accuracy	reactiontime
1	go	1	4	1	1	718
2	go	4	4	1	1	480
3	go	1	16	1	1	430
4	go	1	16	1	1	448
5	go	5	7	1	1	575
6	go	1	10	1	1	498
7	go	8	7	1	1	507
8	go	6	7	1	1	508
9	go	5	16	1	1	504
10	go	7	16	1	1	476
11	go	7	10	1	1	554
12	go	9	4	1	1	504
13	go	2	4	1	1	609
14	nogo	3	13	0	1	n/a
15	go	8	10	1	1	335
16	go	5	16	1	1	403
17	go	5	16	1	1	452
18	go	6	16	1	1	468
19	go	1	13	1	1	437
20	go	8	7	1	1	661
21	go	9	13	1	1	744
22	go	8	13	1	1	691
23	go	2	16	1	1	711
24	go	7	7	1	1	745
25	go	6	10	1	1	742
26	go	4	7	1	1	712
27	go	8	10	1	1	750
28	go	6	16	1	1	763
29	go	8	13	1	1	758
30	go	2	13	1	1	771
31	go	9	13	1	1	764
32	go	8	13	1	1	779
33	go	9	4	1	1	794
34	go	5	10	1	1	767
35	go	2	13	1	1	779
36	go	4	7	1	1	749
37	nogo	3	13	0	1	n/a
38	go	5	10	1	1	829
39	go	5	7	1	1	755
40	go	6	10	1	1	681
41	nogo	3	13	0	1	n/a
42	go	2	16	1	1	603
43	go	7	4	1	1	693
44	go	5	4	1	1	705
45	go	7	10	1	1	721
46	go	8	16	1	1	692
47	go	2	16	1	1	723
48	go	7	4	1	1	699
49	go	4	13	1	1	691
50	go	1	13	1	1	707
51	nogo	3	10	0	1	n/a
52	go	7	10	1	1	517
53	go	4	4	1	1	465
54	go	6	16	1	1	435
55	go	4	13	1	1	494
56	go	8	10	1	1	554
57	go	8	16	1	1	681
58	go	4	7	1	1	741
59	go	1	7	1	1	734
60	go	9	7	1	1	727
61	go	9	16	1	1	742
62	go	4	4	1	1	712
63	go	8	16	1	1	749
64	go	2	13	1	1	763
65	go	2	13	1	1	779
66	go	8	7	1	1	771
67	go	7	10	1	1	808
68	nogo	3	4	0	1	n/a
69	go	4	7	1	1	575
70	go	7	7	1	1	522
71	go	1	16	1	1	424
72	go	4	10	1	1	582
73	nogo	3	10	0	1	n/a
74	go	5	13	1	1	509
75	go	9	4	1	1	515
76	go	8	16	1	1	511
77	go	4	13	1	1	478
78	go	7	4	1	1	636
79	go	4	16	1	1	675
80	go	1	16	1	1	735
81	go	2	7	1	1	726
82	go	6	7	1	1	765
83	go	6	10	1	1	757
84	go	4	4	1	1	728
85	go	6	4	1	1	835
86	go	6	7	1	1	801
87	go	9	16	1	1	794
88	go	9	16	1	1	786
89	go	7	16	1	1	846
90	go	6	13	1	1	818
91	go	4	4	1	1	832
92	go	1	13	1	1	755
93	go	7	7	1	1	726
94	nogo	3	13	0	1	n/a
95	nogo	3	16	0	1	n/a
96	go	9	10	1	1	513
97	go	8	10	1	1	470
98	go	2	16	1	1	453
99	go	7	13	1	1	502
100	go	6	4	1	1	696
101	go	6	4	1	1	1027
102	go	1	7	1	1	772
103	go	9	16	1	1	785
104	go	9	13	1	1	689
105	nogo	3	7	0	1	n/a
106	go	1	7	1	1	544
107	go	4	10	1	1	535
108	go	1	13	1	1	513
109	go	1	7	1	1	519
110	go	2	16	1	1	721
111	nogo	3	13	0	1	n/a
112	go	6	16	1	1	534
113	go	8	10	1	1	525
114	go	5	16	1	1	496
115	go	9	10	1	1	715
116	nogo	3	4	0	1	n/a
117	go	9	4	1	1	659
118	go	5	4	1	1	584
119	go	5	10	1	1	641
120	go	4	13	1	1	661
121	go	2	7	1	1	696
122	go	6	7	1	1	778
123	go	8	4	1	1	748
124	nogo	3	16	0	1	n/a
125	go	8	16	1	1	538
126	go	4	4	1	1	504
127	go	4	13	1	1	496
128	go	2	13	1	1	559
129	go	5	4	1	1	692
130	go	2	7	1	1	731
131	go	1	10	1	1	724
132	go	1	13	1	1	737
133	go	5	7	1	1	797
134	go	9	10	1	1	744
135	go	5	7	1	1	829
136	go	4	4	1	1	843
137	go	5	7	1	1	1016
138	nogo	3	10	0	1	n/a
139	go	4	10	1	1	511
140	go	2	4	1	1	751
141	go	5	7	1	1	750
142	go	6	7	1	1	764
143	go	9	10	1	1	869
144	go	4	7	1	1	1049
145	go	6	13	1	1	905
146	nogo	3	10	0	1	n/a
147	go	1	16	1	1	578
148	go	5	4	1	1	548
149	go	5	10	1	1	565
150	go	4	16	1	1	669
151	go	6	13	1	1	662
152	go	4	13	1	1	790
153	go	5	7	1	1	761
154	go	5	16	1	1	754
155	go	6	4	1	1	722
156	go	2	16	1	1	738
157	nogo	3	13	0	1	n/a
158	go	8	7	1	1	435
159	nogo	3	10	1	0	428
160	go	1	4	1	1	511
161	go	9	16	1	1	481
162	nogo	3	4	0	1	n/a
163	go	2	16	1	1	427
164	go	7	16	1	1	453
165	go	6	16	1	1	523
166	go	6	16	1	1	706
167	go	2	7	1	1	717
168	go	2	4	0	0	n/a
169	go	8	7	1	1	551
170	go	8	10	1	1	467
171	go	6	7	1	1	559
172	nogo	3	10	0	1	n/a
173	go	2	7	1	1	441
174	go	1	4	1	1	636
175	go	6	4	1	1	673
176	go	1	13	1	1	568
177	nogo	3	16	0	1	n/a
178	go	1	4	1	1	634
179	go	7	4	1	1	605
180	go	2	10	1	1	575
181	go	9	4	1	1	702
182	go	9	4	1	1	740
183	go	8	10	1	1	710
184	go	7	7	1	1	791
185	go	2	10	1	1	876
186	go	7	10	1	1	754
187	go	9	16	1	1	792
188	go	7	7	1	1	761
189	go	1	10	1	1	803
190	go	4	10	1	1	724
191	go	8	7	1	1	786
192	go	5	4	1	1	822
193	go	9	10	1	1	793
194	go	5	16	1	1	830
195	go	6	13	1	1	733
196	go	9	7	1	1	809
197	nogo	3	4	0	1	n/a
198	go	9	10	1	1	422
199	go	8	4	1	1	461
200	go	7	13	1	1	504
201	nogo	3	10	0	1	n/a
202	go	4	4	1	1	629
203	nogo	3	7	1	0	486
204	go	1	4	1	1	524
205	go	6	7	1	1	508
206	go	5	16	1	1	577
207	go	9	13	1	1	794
208	go	2	10	1	1	808
209	go	7	16	1	1	773
210	go	7	13	1	1	787
211	go	1	13	1	1	758
212	go	8	13	1	1	795
213	go	7	13	1	1	766
214	go	1	13	1	1	872
215	go	7	13	1	1	750
216	nogo	3	7	0	1	n/a
217	nogo	3	4	0	1	n/a
218	go	2	13	1	1	538
219	go	2	10	1	1	464
220	go	7	10	1	1	454
221	go	5	10	1	1	621
222	nogo	3	4	0	1	n/a
223	go	7	7	1	1	639
224	go	8	4	1	1	722
225	go	9	13	1	1	699
