trial	trial_type	stimulus	fontsize	response	accuracy	reactiontime
1	go	1	10	1	1	571
2	go	4	4	1	1	558
3	go	1	4	1	1	530
4	go	1	10	1	1	521
5	go	5	4	1	1	534
6	go	1	10	1	1	405
7	go	8	10	1	1	386
8	go	6	10	1	1	481
9	go	5	10	1	1	435
10	go	7	13	1	1	392
11	go	7	7	1	1	386
12	go	9	16	1	1	395
13	go	2	7	1	1	684
14	nogo	3	13	1	0	372
15	go	8	16	1	1	693
16	go	5	7	1	1	544
17	go	5	7	1	1	466
18	go	6	4	1	1	552
19	go	1	7	1	1	640
20	go	8	16	1	1	471
21	go	9	4	1	1	480
22	go	8	7	1	1	449
23	go	2	13	1	1	654
24	go	7	10	1	1	410
25	go	6	7	1	1	471
26	go	4	13	1	1	406
27	go	8	4	1	1	528
28	go	6	16	1	1	473
29	go	8	10	1	1	386
30	go	2	13	1	1	388
31	go	9	16	1	1	384
32	go	8	4	1	1	413
33	go	9	4	1	1	388
34	go	5	16	1	1	341
35	go	2	16	1	1	456
36	go	4	10	1	1	585
37	nogo	3	13	0	1	n/a
38	go	5	4	1	1	526
39	go	5	7	1	1	475
40	go	6	10	1	1	352
41	nogo	3	16	1	0	367
42	go	2	10	1	1	523
43	go	7	7	1	1	515
44	go	5	10	1	1	650
45	go	7	13	1	1	475
46	go	8	7	1	1	443
47	go	2	10	1	1	436
48	go	7	10	1	1	568
49	go	4	16	1	1	443
50	go	1	16	1	1	716
51	nogo	3	16	0	1	n/a
52	go	7	7	1	1	751
53	go	4	10	1	1	719
54	go	6	13	1	1	714
55	go	4	16	1	1	796
56	go	8	10	1	1	767
57	go	8	7	1	1	710
58	go	4	16	1	1	781
59	go	1	7	1	1	839
60	go	9	4	1	1	698
61	go	9	10	1	1	735
62	go	4	13	1	1	704
63	go	8	4	1	1	674
64	go	2	13	1	1	779
65	go	2	10	1	1	705
66	go	8	7	1	1	740
67	go	7	13	1	1	757
68	nogo	3	7	0	1	n/a
69	go	4	13	1	1	751
70	go	7	7	1	1	764
71	go	1	4	1	1	733
72	go	4	10	1	1	658
73	nogo	3	10	0	1	n/a
74	go	5	16	1	1	699
75	go	9	4	1	1	719
76	go	8	4	1	1	731
77	go	4	13	1	1	790
78	go	7	7	1	1	669
79	go	4	7	1	1	803
80	go	1	16	1	1	667
81	go	2	4	1	1	682
82	go	6	13	1	1	555
83	go	6	7	1	1	755
84	go	4	13	1	1	772
85	go	6	16	1	1	852
86	go	6	7	1	1	667
87	go	9	7	1	1	702
88	go	9	13	1	1	695
89	go	7	13	1	1	688
90	go	6	10	1	1	659
91	go	4	16	1	1	650
92	go	1	13	1	1	687
93	go	7	4	1	1	680
94	nogo	3	4	0	1	n/a
95	nogo	3	4	0	1	n/a
96	go	9	4	1	1	753
97	go	8	10	1	1	675
98	go	2	7	1	1	670
99	go	7	7	1	1	617
100	go	6	4	1	1	641
101	go	6	16	1	1	727
102	go	1	7	1	1	700
103	go	9	13	1	1	554
104	go	9	4	1	1	637
105	nogo	3	4	0	1	n/a
106	go	1	13	1	1	673
107	go	4	10	1	1	666
108	go	1	13	1	1	591
109	go	1	10	1	1	695
110	go	2	10	1	1	668
111	nogo	3	13	0	1	n/a
112	go	6	16	1	1	704
113	go	8	7	1	1	671
114	go	5	10	1	1	708
115	go	9	13	1	1	655
116	nogo	3	10	0	1	n/a
117	go	9	10	1	1	625
118	go	5	16	1	1	735
119	go	5	16	1	1	683
120	go	4	13	1	1	653
121	go	2	7	1	1	667
122	go	6	13	1	1	773
123	go	8	16	1	1	743
124	nogo	3	16	0	1	n/a
125	go	8	16	1	1	712
126	go	4	13	1	1	750
127	go	4	7	1	1	808
128	go	2	4	1	1	869
129	go	5	10	1	1	906
130	go	2	4	1	1	853
131	go	1	13	1	1	800
132	go	1	4	1	1	819
133	go	5	13	1	1	791
134	go	9	10	1	1	740
135	go	5	10	1	1	716
136	go	4	10	1	1	753
137	go	5	7	1	1	744
138	nogo	3	16	0	1	n/a
139	go	4	16	1	1	658
140	go	2	13	1	1	727
141	go	5	7	1	1	675
142	go	6	10	1	1	714
143	go	9	16	1	1	541
144	go	4	7	1	1	787
145	go	6	4	1	1	917
146	nogo	3	13	0	1	n/a
147	go	1	4	1	1	1088
148	go	5	10	1	1	809
149	go	5	4	1	1	740
150	go	4	13	1	1	761
151	go	6	7	1	1	686
152	go	4	16	1	1	836
153	go	5	7	1	1	715
154	go	5	13	1	1	742
155	go	6	7	1	1	734
156	go	2	13	1	1	768
157	nogo	3	16	0	1	n/a
158	go	8	4	1	1	787
159	nogo	3	13	0	1	n/a
160	go	1	7	1	1	799
161	go	9	10	1	1	813
162	nogo	3	16	0	1	n/a
163	go	2	10	1	1	759
164	go	7	4	1	1	708
165	go	6	10	1	1	750
166	go	6	16	1	1	720
167	go	2	13	1	1	780
168	go	2	10	1	1	704
169	go	8	10	1	1	741
170	go	8	4	1	1	685
171	go	6	16	1	1	750
172	nogo	3	7	0	1	n/a
173	go	2	10	1	1	674
174	go	1	16	1	1	688
175	go	6	16	1	1	704
176	go	1	16	1	1	763
177	nogo	3	7	0	1	n/a
178	go	1	16	1	1	551
179	go	7	4	1	1	700
180	go	2	4	1	1	762
181	go	9	16	1	1	760
182	go	9	4	1	1	749
183	go	8	13	1	1	587
184	go	7	7	1	1	851
185	go	2	16	1	1	729
186	go	7	13	1	1	702
187	go	9	13	1	1	714
188	go	7	13	1	1	707
189	go	1	4	1	1	721
190	go	4	13	1	1	692
191	go	8	13	1	1	662
192	go	5	10	1	1	789
193	go	9	7	1	1	737
194	go	5	4	1	1	707
195	go	6	4	1	1	653
196	go	9	7	1	1	645
197	nogo	3	16	0	1	n/a
198	go	9	4	1	1	660
199	go	8	10	1	1	693
200	go	7	7	1	1	692
201	nogo	3	7	0	1	n/a
202	go	4	13	1	1	726
203	nogo	3	10	0	1	n/a
204	go	1	4	1	1	718
205	go	6	10	1	1	689
206	go	5	16	1	1	678
207	go	9	16	1	1	655
208	go	2	16	1	1	508
209	go	7	7	1	1	686
210	go	7	4	1	1	721
211	go	1	13	1	1	783
212	go	8	16	1	1	729
213	go	7	4	1	1	767
214	go	1	4	1	1	692
215	go	7	7	1	1	708
216	nogo	3	16	0	1	n/a
217	nogo	3	7	0	1	n/a
218	go	2	13	1	1	810
219	go	2	10	1	1	667
220	go	7	4	1	1	726
221	go	5	4	1	1	672
222	nogo	3	4	0	1	n/a
223	go	7	16	1	1	581
224	go	8	7	1	1	707
225	go	9	13	1	1	700
