trial	trial_type	stimulus	fontsize	response	accuracy	reactiontime
1	go	1	16	1	1	913
2	go	4	7	1	1	471
3	go	1	16	1	1	369
4	go	1	16	1	1	324
5	go	5	4	1	1	359
6	go	1	4	1	1	347
7	go	8	10	1	1	339
8	go	6	7	1	1	354
9	go	5	10	1	1	391
10	go	7	13	1	1	361
11	go	7	4	1	1	331
12	go	9	7	1	1	358
13	go	2	7	1	1	361
14	nogo	3	13	1	0	308
15	go	8	13	1	1	369
16	go	5	16	1	1	294
17	go	5	4	1	1	304
18	go	6	16	1	1	323
19	go	1	7	1	1	341
20	go	8	4	1	1	364
21	go	9	4	1	1	330
22	go	8	4	1	1	355
23	go	2	7	1	1	347
24	go	7	13	1	1	374
25	go	6	7	1	1	282
26	go	4	7	1	1	306
27	go	8	7	1	1	307
28	go	6	7	1	1	335
29	go	8	16	1	1	302
30	go	2	13	1	1	297
31	go	9	16	1	1	343
32	go	8	16	1	1	339
33	go	9	13	1	1	305
34	go	5	10	1	1	337
35	go	2	13	1	1	304
36	go	4	16	1	1	335
37	nogo	3	16	0	1	n/a
38	go	5	10	1	1	958
39	go	5	7	1	1	363
40	go	6	4	1	1	290
41	nogo	3	13	1	0	302
42	go	2	13	1	1	358
43	go	7	7	1	1	333
44	go	5	13	1	1	326
45	go	7	10	1	1	301
46	go	8	16	1	1	310
47	go	2	4	1	1	371
48	go	7	13	1	1	449
49	go	4	7	1	1	304
50	go	1	7	1	1	342
51	nogo	3	16	1	0	380
52	go	7	16	1	1	360
53	go	4	4	1	1	302
54	go	6	10	1	1	263
55	go	4	7	1	1	304
56	go	8	13	1	1	343
57	go	8	10	1	1	335
58	go	4	13	1	1	302
59	go	1	7	1	1	304
60	go	9	10	1	1	378
61	go	9	13	1	1	273
62	go	4	7	1	1	359
63	go	8	10	1	1	443
64	go	2	4	1	1	458
65	go	2	10	1	1	329
66	go	8	16	1	1	307
67	go	7	4	1	1	342
68	nogo	3	13	1	0	293
69	go	4	13	1	1	329
70	go	7	4	1	1	342
71	go	1	4	1	1	334
72	go	4	10	1	1	380
73	nogo	3	10	0	1	n/a
74	go	5	7	1	1	689
75	go	9	7	1	1	313
76	go	8	10	1	1	266
77	go	4	10	1	1	259
78	go	7	7	1	1	320
79	go	4	13	1	1	303
80	go	1	4	1	1	321
81	go	2	13	1	1	305
82	go	6	10	1	1	298
83	go	6	4	1	1	317
84	go	4	10	1	1	298
85	go	6	16	1	1	328
86	go	6	13	1	1	365
87	go	9	13	1	1	313
88	go	9	7	1	1	328
89	go	7	13	1	1	400
90	go	6	4	1	1	407
91	go	4	7	1	1	350
92	go	1	4	1	1	422
93	go	7	13	1	1	403
94	nogo	3	10	1	0	328
95	nogo	3	7	1	0	304
96	go	9	4	1	1	545
97	go	8	4	1	1	419
98	go	2	13	1	1	388
99	go	7	4	1	1	357
100	go	6	4	1	1	474
101	go	6	16	1	1	388
102	go	1	7	1	1	380
103	go	9	16	1	1	306
104	go	9	16	1	1	320
105	nogo	3	10	1	0	313
106	go	1	10	1	1	457
107	go	4	16	1	1	345
108	go	1	16	1	1	330
109	go	1	4	1	1	458
110	go	2	7	1	1	461
111	nogo	3	16	1	0	352
112	go	6	10	1	1	389
113	go	8	13	1	1	462
114	go	5	10	1	1	352
115	go	9	16	1	1	262
116	nogo	3	10	1	0	313
117	go	9	16	1	1	337
118	go	5	13	1	1	340
119	go	5	10	1	1	354
120	go	4	7	1	1	392
121	go	2	10	1	1	385
122	go	6	7	1	1	377
123	go	8	16	1	1	391
124	nogo	3	4	1	0	350
125	go	8	4	1	1	305
126	go	4	13	1	1	312
127	go	4	13	1	1	307
128	go	2	7	1	1	320
129	go	5	4	1	1	311
130	go	2	7	1	1	395
131	go	1	10	1	1	342
132	go	1	16	1	1	335
133	go	5	10	1	1	306
134	go	9	16	1	1	399
135	go	5	16	1	1	402
136	go	4	10	1	1	338
137	go	5	10	1	1	320
138	nogo	3	16	0	1	n/a
139	go	4	4	1	1	798
140	go	2	10	1	1	411
141	go	5	7	1	1	406
142	go	6	13	1	1	367
143	go	9	16	1	1	428
144	go	4	13	1	1	349
145	go	6	13	1	1	335
146	nogo	3	16	1	0	424
147	go	1	13	1	1	406
148	go	5	16	1	1	386
149	go	5	4	1	1	328
150	go	4	7	1	1	437
151	go	6	16	1	1	431
152	go	4	10	1	1	386
153	go	5	7	1	1	414
154	go	5	7	1	1	430
155	go	6	7	1	1	436
156	go	2	7	1	1	555
157	nogo	3	13	0	1	n/a
158	go	8	4	1	1	667
159	nogo	3	13	1	0	364
160	go	1	16	1	1	353
161	go	9	10	1	1	349
162	nogo	3	10	1	0	363
163	go	2	7	1	1	308
164	go	7	7	1	1	372
165	go	6	4	1	1	510
166	go	6	4	1	1	441
167	go	2	4	1	1	347
168	go	2	10	1	1	410
169	go	8	4	1	1	469
170	go	8	10	1	1	439
171	go	6	16	1	1	403
172	nogo	3	16	1	0	345
173	go	2	4	1	1	305
174	go	1	10	1	1	387
175	go	6	16	1	1	352
176	go	1	16	1	1	337
177	nogo	3	10	1	0	307
178	go	1	10	1	1	307
179	go	7	4	1	1	337
180	go	2	7	1	1	414
181	go	9	4	1	1	385
182	go	9	16	1	1	263
183	go	8	7	1	1	302
184	go	7	13	1	1	397
185	go	2	10	1	1	478
186	go	7	10	1	1	414
187	go	9	16	1	1	385
188	go	7	13	1	1	399
189	go	1	13	1	1	438
190	go	4	7	1	1	384
191	go	8	10	1	1	388
192	go	5	7	1	1	507
193	go	9	16	1	1	406
194	go	5	13	1	1	366
195	go	6	4	1	1	391
196	go	9	13	1	1	442
197	nogo	3	16	1	0	421
198	go	9	10	1	1	346
199	go	8	16	1	1	340
200	go	7	7	1	1	367
201	nogo	3	10	1	0	369
202	go	4	13	1	1	305
203	nogo	3	13	1	0	316
204	go	1	16	1	1	213
205	go	6	4	1	1	280
206	go	5	7	1	1	332
207	go	9	13	1	1	391
208	go	2	10	1	1	370
209	go	7	7	1	1	307
210	go	7	10	1	1	334
211	go	1	16	1	1	306
212	go	8	4	1	1	330
213	go	7	16	1	1	368
214	go	1	10	1	1	372
215	go	7	4	1	1	454
216	nogo	3	4	1	0	391
217	nogo	3	7	1	0	394
218	go	2	4	1	1	546
219	go	2	13	1	1	428
220	go	7	4	1	1	389
221	go	5	13	1	1	415
222	nogo	3	4	1	0	396
223	go	7	13	1	1	389
224	go	8	4	1	1	426
225	go	9	13	1	1	388
