trial	trial_type	stimulus	fontsize	response	accuracy	reactiontime
1	go	1	13	1	1	696
2	go	4	10	1	1	399
3	go	1	4	1	1	304
4	go	1	16	1	1	269
5	go	5	10	1	1	327
6	go	1	13	1	1	347
7	go	8	7	1	1	362
8	go	6	10	1	1	303
9	go	5	4	1	1	262
10	go	7	4	1	1	298
11	go	7	16	1	1	298
12	go	9	7	1	1	305
13	go	2	7	1	1	314
14	nogo	3	10	0	1	n/a
15	go	8	13	1	1	359
16	go	5	7	1	1	396
17	go	5	10	1	1	342
18	go	6	13	1	1	358
19	go	1	16	1	1	386
20	go	8	16	1	1	418
21	go	9	16	1	1	326
22	go	8	16	1	1	315
23	go	2	4	1	1	314
24	go	7	16	1	1	374
25	go	6	10	1	1	345
26	go	4	7	1	1	338
27	go	8	13	1	1	365
28	go	6	4	1	1	461
29	go	8	13	1	1	315
30	go	2	4	1	1	310
31	go	9	13	1	1	354
32	go	8	7	1	1	328
33	go	9	13	1	1	315
34	go	5	10	1	1	346
35	go	2	4	1	1	493
36	go	4	10	1	1	350
37	nogo	3	7	0	1	n/a
38	go	5	4	1	1	372
39	go	5	10	1	1	319
40	go	6	16	1	1	342
41	nogo	3	4	0	1	n/a
42	go	2	16	1	1	358
43	go	7	13	1	1	325
44	go	5	13	1	1	318
45	go	7	7	1	1	264
46	go	8	13	1	1	340
47	go	2	7	1	1	338
48	go	7	10	1	1	382
49	go	4	16	1	1	326
50	go	1	10	1	1	368
51	nogo	3	13	0	1	n/a
52	go	7	4	1	1	470
53	go	4	7	1	1	444
54	go	6	16	1	1	448
55	go	4	7	1	1	346
56	go	8	7	1	1	430
57	go	8	4	1	1	422
58	go	4	4	1	1	436
59	go	1	13	1	1	384
60	go	9	4	1	1	377
61	go	9	10	1	1	391
62	go	4	16	1	1	385
63	go	8	7	1	1	422
64	go	2	16	1	1	388
65	go	2	7	1	1	419
66	go	8	16	1	1	445
67	go	7	16	1	1	379
68	nogo	3	16	0	1	n/a
69	go	4	10	1	1	452
70	go	7	16	1	1	601
71	go	1	4	1	1	480
72	go	4	13	1	1	428
73	nogo	3	10	0	1	n/a
74	go	5	4	1	1	395
75	go	9	10	1	1	360
76	go	8	10	1	1	375
77	go	4	4	1	1	508
78	go	7	16	1	1	417
79	go	4	4	1	1	411
80	go	1	4	1	1	436
81	go	2	4	1	1	434
82	go	6	16	1	1	404
83	go	6	10	1	1	453
84	go	4	4	1	1	493
85	go	6	16	1	1	392
86	go	6	13	1	1	362
87	go	9	16	1	1	399
88	go	9	16	1	1	370
89	go	7	10	1	1	362
90	go	6	4	1	1	400
91	go	4	7	1	1	347
92	go	1	13	1	1	317
93	go	7	7	1	1	258
94	nogo	3	10	1	0	303
95	nogo	3	16	0	1	n/a
96	go	9	13	1	1	469
97	go	8	16	1	1	457
98	go	2	13	1	1	409
99	go	7	16	1	1	501
100	go	6	16	1	1	428
101	go	6	16	1	1	397
102	go	1	7	1	1	478
103	go	9	4	1	1	517
104	go	9	10	1	1	354
105	nogo	3	10	0	1	n/a
106	go	1	10	1	1	426
107	go	4	13	1	1	454
108	go	1	10	1	1	654
109	go	1	10	1	1	765
110	go	2	4	1	1	736
111	nogo	3	7	0	1	n/a
112	go	6	4	1	1	619
113	go	8	13	1	1	527
114	go	5	16	1	1	522
115	go	9	13	1	1	723
116	nogo	3	13	0	1	n/a
117	go	9	16	1	1	627
118	go	5	16	1	1	680
119	go	5	4	1	1	718
120	go	4	16	1	1	711
121	go	2	7	1	1	748
122	go	6	13	1	1	740
123	go	8	10	1	1	736
124	nogo	3	4	0	1	n/a
125	go	8	4	1	1	634
126	go	4	13	1	1	652
127	go	4	13	1	1	621
128	go	2	16	1	1	624
129	go	5	10	1	1	599
130	go	2	7	1	1	636
131	go	1	10	1	1	651
132	go	1	4	1	1	573
133	go	5	7	1	1	643
134	go	9	13	1	1	685
135	go	5	7	1	1	655
136	go	4	7	1	1	767
137	go	5	16	1	1	692
138	nogo	3	7	0	1	n/a
139	go	4	16	1	1	412
140	go	2	7	1	1	659
141	go	5	7	1	1	498
142	go	6	10	1	1	491
143	go	9	10	1	1	664
144	go	4	16	1	1	702
145	go	6	13	1	1	693
146	nogo	3	10	0	1	n/a
147	go	1	13	1	1	617
148	go	5	13	1	1	448
149	go	5	7	1	1	591
150	go	4	4	1	1	629
151	go	6	13	1	1	621
152	go	4	7	1	1	568
153	go	5	7	1	1	538
154	go	5	10	1	1	650
155	go	6	16	1	1	670
156	go	2	4	1	1	686
157	nogo	3	13	0	1	n/a
158	go	8	10	1	1	384
159	nogo	3	13	1	0	397
160	go	1	10	1	1	773
161	go	9	4	1	1	510
162	nogo	3	10	0	1	n/a
163	go	2	10	1	1	533
164	go	7	7	1	1	575
165	go	6	16	1	1	427
166	go	6	4	1	1	538
167	go	2	7	1	1	693
168	go	2	4	1	1	665
169	go	8	7	1	1	661
170	go	8	16	1	1	609
171	go	6	13	1	1	474
172	nogo	3	10	0	1	n/a
173	go	2	4	1	1	334
174	go	1	10	1	1	329
175	go	6	10	1	1	432
176	go	1	16	1	1	542
177	nogo	3	7	0	1	n/a
178	go	1	13	1	1	584
179	go	7	13	1	1	554
180	go	2	4	1	1	620
181	go	9	13	1	1	544
182	go	9	7	1	1	442
183	go	8	10	1	1	552
184	go	7	13	1	1	452
185	go	2	7	1	1	488
186	go	7	7	1	1	496
187	go	9	7	1	1	466
188	go	7	13	1	1	368
189	go	1	16	1	1	653
190	go	4	4	1	1	489
191	go	8	10	1	1	457
192	go	5	13	1	1	405
193	go	9	4	1	1	534
194	go	5	13	1	1	448
195	go	6	13	1	1	518
196	go	9	7	1	1	409
197	nogo	3	7	0	1	n/a
198	go	9	16	1	1	446
199	go	8	10	1	1	350
200	go	7	4	1	1	407
201	nogo	3	7	0	1	n/a
202	go	4	4	1	1	422
203	nogo	3	16	0	1	n/a
204	go	1	10	1	1	453
205	go	6	4	1	1	541
206	go	5	7	1	1	375
207	go	9	4	1	1	457
208	go	2	4	1	1	450
209	go	7	7	1	1	492
210	go	7	13	1	1	477
211	go	1	7	1	1	514
212	go	8	13	1	1	451
213	go	7	7	1	1	474
214	go	1	4	1	1	511
215	go	7	13	1	1	600
216	nogo	3	13	0	1	n/a
217	nogo	3	10	1	0	383
218	go	2	4	1	1	584
219	go	2	10	1	1	672
220	go	7	16	1	1	553
221	go	5	7	1	1	494
222	nogo	3	4	0	1	n/a
223	go	7	10	1	1	676
224	go	8	16	1	1	786
225	go	9	16	1	1	601
