participant_id	group	session	instOrdr	instSctn	itmOrdr	inst	itemID	response	score	position	responseTime	type
6001	2	pre	1	2	2	NIH_Toolbox_List_Sorting_Working_Memory_Test_Age_7+_v2.1	LS1LAP1	1	1	1	0	practice
6001	2	pre	1	2	4	NIH_Toolbox_List_Sorting_Working_Memory_Test_Age_7+_v2.1	LS1LAP2	1	1	2	0	practice
6001	2	pre	1	4	1	NIH_Toolbox_List_Sorting_Working_Memory_Test_Age_7+_v2.1	WMLS1L3T1	1	4	3	0	main
6001	2	pre	1	4	5	NIH_Toolbox_List_Sorting_Working_Memory_Test_Age_7+_v2.1	WMLS1L4T2	1	2	4	0	main
6001	2	pre	1	4	7	NIH_Toolbox_List_Sorting_Working_Memory_Test_Age_7+_v2.1	WMLS1L5T2	1	2	5	0	main
6001	2	pre	1	4	9	NIH_Toolbox_List_Sorting_Working_Memory_Test_Age_7+_v2.1	WMLS1L6T3	1	2	6	0	main
6001	2	pre	1	4	11	NIH_Toolbox_List_Sorting_Working_Memory_Test_Age_7+_v2.1	WMLS1L7T1	2	0	7	0	main
6001	2	pre	1	4	12	NIH_Toolbox_List_Sorting_Working_Memory_Test_Age_7+_v2.1	WMLS1L7T2	2	0	8	0	main
6001	2	pre	1	5	2	NIH_Toolbox_List_Sorting_Working_Memory_Test_Age_7+_v2.1	LS2LAP1	1	1	9	0	practice
6001	2	pre	1	5	4	NIH_Toolbox_List_Sorting_Working_Memory_Test_Age_7+_v2.1	LS2LAP2	1	1	10	0	practice
6001	2	pre	1	7	1	NIH_Toolbox_List_Sorting_Working_Memory_Test_Age_7+_v2.1	WMLS2L03A	1	2	11	0	main
6001	2	pre	1	7	3	NIH_Toolbox_List_Sorting_Working_Memory_Test_Age_7+_v2.1	WMLS2L04T2	1	2	12	0	main
6001	2	pre	1	7	5	NIH_Toolbox_List_Sorting_Working_Memory_Test_Age_7+_v2.1	WMLS2L05T3	1	2	13	0	main
6001	2	pre	1	7	7	NIH_Toolbox_List_Sorting_Working_Memory_Test_Age_7+_v2.1	WMLS2L04A	1	2	14	0	main
6001	2	pre	1	7	9	NIH_Toolbox_List_Sorting_Working_Memory_Test_Age_7+_v2.1	WMLS2L07T3	2	0	15	0	main
6001	2	pre	1	7	10	NIH_Toolbox_List_Sorting_Working_Memory_Test_Age_7+_v2.1	WMLS2L07T1	1	1	16	0	main
6001	2	pre	1	7	11	NIH_Toolbox_List_Sorting_Working_Memory_Test_Age_7+_v2.1	WMLS2L08T1	2	0	17	0	main
6001	2	pre	1	7	12	NIH_Toolbox_List_Sorting_Working_Memory_Test_Age_7+_v2.1	WMLS2L06B	2	0	18	0	main
6001	2	pre	2	1	1	NIH_Toolbox_Pattern_Comparison_Processing_Speed_Test_Age_7+_Practice_v2.1	PSPAC_INSTR	n/a	n/a	n/a	n/a	instruction
6001	2	pre	2	3	1	NIH_Toolbox_Pattern_Comparison_Processing_Speed_Test_Age_7+_Practice_v2.1	PSPAC_INTRO_INSTR	-1	n/a	1	n/a	instruction
6001	2	pre	2	4	1	NIH_Toolbox_Pattern_Comparison_Processing_Speed_Test_Age_7+_Practice_v2.1	PSPACPA1	1	1	2	n/a	practice
6001	2	pre	2	4	2	NIH_Toolbox_Pattern_Comparison_Processing_Speed_Test_Age_7+_Practice_v2.1	PSPACPA2	2	1	3	n/a	practice
6001	2	pre	2	5	1	NIH_Toolbox_Pattern_Comparison_Processing_Speed_Test_Age_7+_Practice_v2.1	PSPACPA3	2	1	4	n/a	practice
6001	2	pre	2	6	1	NIH_Toolbox_Pattern_Comparison_Processing_Speed_Test_Age_7+_Practice_v2.1	PSPACPA4	1	1	5	n/a	practice
6001	2	pre	2	6	2	NIH_Toolbox_Pattern_Comparison_Processing_Speed_Test_Age_7+_Practice_v2.1	PSPACPA5	2	1	6	n/a	practice
6001	2	pre	2	6	3	NIH_Toolbox_Pattern_Comparison_Processing_Speed_Test_Age_7+_Practice_v2.1	PSPACPA6	1	1	7	n/a	practice
6001	2	pre	2	9	1	NIH_Toolbox_Pattern_Comparison_Processing_Speed_Test_Age_7+_Practice_v2.1	PSPAC_TRANSITION	-1	n/a	8	n/a	practice
6001	2	pre	3	1	1	NIH_Toolbox_Pattern_Comparison_Processing_Speed_Test_Age_7+_v2.1	PSPAC003	1	1	1	2.015481	main
6001	2	pre	3	1	2	NIH_Toolbox_Pattern_Comparison_Processing_Speed_Test_Age_7+_v2.1	PSPAC013	2	1	2	1.459576	main
6001	2	pre	3	1	3	NIH_Toolbox_Pattern_Comparison_Processing_Speed_Test_Age_7+_v2.1	PSPAC005	1	1	3	1.493606	main
6001	2	pre	3	1	4	NIH_Toolbox_Pattern_Comparison_Processing_Speed_Test_Age_7+_v2.1	PSPAC002	1	1	4	1.655054	main
6001	2	pre	3	1	5	NIH_Toolbox_Pattern_Comparison_Processing_Speed_Test_Age_7+_v2.1	PSPAC021	2	1	5	1.500454	main
6001	2	pre	3	1	6	NIH_Toolbox_Pattern_Comparison_Processing_Speed_Test_Age_7+_v2.1	PSPAC006	1	1	6	1.58322	main
6001	2	pre	3	1	7	NIH_Toolbox_Pattern_Comparison_Processing_Speed_Test_Age_7+_v2.1	PSPAC023	2	1	7	1.385437	main
6001	2	pre	3	1	8	NIH_Toolbox_Pattern_Comparison_Processing_Speed_Test_Age_7+_v2.1	PSPAC019	2	1	8	1.297615	main
6001	2	pre	3	1	9	NIH_Toolbox_Pattern_Comparison_Processing_Speed_Test_Age_7+_v2.1	PSPAC007	1	1	9	1.361199	main
6001	2	pre	3	1	10	NIH_Toolbox_Pattern_Comparison_Processing_Speed_Test_Age_7+_v2.1	PSPAC029	2	1	10	1.36733	main
6001	2	pre	3	1	11	NIH_Toolbox_Pattern_Comparison_Processing_Speed_Test_Age_7+_v2.1	PSPAC055	1	1	11	1.416257	main
6001	2	pre	3	1	12	NIH_Toolbox_Pattern_Comparison_Processing_Speed_Test_Age_7+_v2.1	PSPAC018	1	1	12	1.699844	main
6001	2	pre	3	1	13	NIH_Toolbox_Pattern_Comparison_Processing_Speed_Test_Age_7+_v2.1	PSPAC031	2	1	13	1.545542	main
6001	2	pre	3	1	14	NIH_Toolbox_Pattern_Comparison_Processing_Speed_Test_Age_7+_v2.1	PSPAC030	2	1	14	1.427703	main
6001	2	pre	3	1	15	NIH_Toolbox_Pattern_Comparison_Processing_Speed_Test_Age_7+_v2.1	PSPAC061	2	1	15	1.488897	main
6001	2	pre	3	1	16	NIH_Toolbox_Pattern_Comparison_Processing_Speed_Test_Age_7+_v2.1	PSPAC024	1	1	16	1.56063	main
6001	2	pre	3	1	17	NIH_Toolbox_Pattern_Comparison_Processing_Speed_Test_Age_7+_v2.1	PSPAC028	1	1	17	1.513941	main
6001	2	pre	3	1	18	NIH_Toolbox_Pattern_Comparison_Processing_Speed_Test_Age_7+_v2.1	PSPAC039	2	1	18	1.544378	main
6001	2	pre	3	1	19	NIH_Toolbox_Pattern_Comparison_Processing_Speed_Test_Age_7+_v2.1	PSPAC113	1	1	19	1.484048	main
6001	2	pre	3	1	20	NIH_Toolbox_Pattern_Comparison_Processing_Speed_Test_Age_7+_v2.1	PSPAC253	2	1	20	1.278627	main
6001	2	pre	3	1	21	NIH_Toolbox_Pattern_Comparison_Processing_Speed_Test_Age_7+_v2.1	PSPAC036	1	1	21	1.33989	main
6001	2	pre	3	1	22	NIH_Toolbox_Pattern_Comparison_Processing_Speed_Test_Age_7+_v2.1	PSPAC037	1	1	22	1.538436	main
6001	2	pre	3	1	23	NIH_Toolbox_Pattern_Comparison_Processing_Speed_Test_Age_7+_v2.1	PSPAC041	1	1	23	1.300939	main
6001	2	pre	3	1	24	NIH_Toolbox_Pattern_Comparison_Processing_Speed_Test_Age_7+_v2.1	PSPAC095	2	1	24	1.384634	main
6001	2	pre	3	1	25	NIH_Toolbox_Pattern_Comparison_Processing_Speed_Test_Age_7+_v2.1	PSPAC110	2	1	25	1.517084	main
6001	2	pre	3	1	26	NIH_Toolbox_Pattern_Comparison_Processing_Speed_Test_Age_7+_v2.1	PSPAC138	2	1	26	1.265948	main
6001	2	pre	3	1	27	NIH_Toolbox_Pattern_Comparison_Processing_Speed_Test_Age_7+_v2.1	PSPAC043	1	1	27	1.458019	main
6001	2	pre	3	1	28	NIH_Toolbox_Pattern_Comparison_Processing_Speed_Test_Age_7+_v2.1	PSPAC032	2	1	28	1.242761	main
6001	2	pre	3	1	29	NIH_Toolbox_Pattern_Comparison_Processing_Speed_Test_Age_7+_v2.1	PSPAC047	1	1	29	1.357971	main
6001	2	pre	3	1	30	NIH_Toolbox_Pattern_Comparison_Processing_Speed_Test_Age_7+_v2.1	PSPAC004	2	1	30	1.24801	main
6001	2	pre	3	1	31	NIH_Toolbox_Pattern_Comparison_Processing_Speed_Test_Age_7+_v2.1	PSPAC044	2	1	31	1.238754	main
6001	2	pre	3	1	32	NIH_Toolbox_Pattern_Comparison_Processing_Speed_Test_Age_7+_v2.1	PSPAC212	1	1	32	1.670999	main
6001	2	pre	3	1	33	NIH_Toolbox_Pattern_Comparison_Processing_Speed_Test_Age_7+_v2.1	PSPAC016	2	1	33	1.135436	main
6001	2	pre	3	1	34	NIH_Toolbox_Pattern_Comparison_Processing_Speed_Test_Age_7+_v2.1	PSPAC014	1	1	34	1.897625	main
6001	2	pre	3	1	35	NIH_Toolbox_Pattern_Comparison_Processing_Speed_Test_Age_7+_v2.1	PSPAC052	2	1	35	1.227099	main
6001	2	pre	3	1	36	NIH_Toolbox_Pattern_Comparison_Processing_Speed_Test_Age_7+_v2.1	PSPAC056	1	1	36	1.489529	main
6001	2	pre	3	1	37	NIH_Toolbox_Pattern_Comparison_Processing_Speed_Test_Age_7+_v2.1	PSPAC008	1	1	37	1.682798	main
6001	2	pre	3	1	38	NIH_Toolbox_Pattern_Comparison_Processing_Speed_Test_Age_7+_v2.1	PSPAC058	2	1	38	1.184545	main
6001	2	pre	3	1	39	NIH_Toolbox_Pattern_Comparison_Processing_Speed_Test_Age_7+_v2.1	PSPAC059	1	1	39	1.433073	main
6001	2	pre	3	1	40	NIH_Toolbox_Pattern_Comparison_Processing_Speed_Test_Age_7+_v2.1	PSPAC116	2	1	40	1.118319	main
6001	2	pre	3	1	41	NIH_Toolbox_Pattern_Comparison_Processing_Speed_Test_Age_7+_v2.1	PSPAC051	1	0	41	1.264686	main
6001	2	pre	3	1	42	NIH_Toolbox_Pattern_Comparison_Processing_Speed_Test_Age_7+_v2.1	PSPAC053	2	1	42	1.418068	main
6001	2	pre	3	1	43	NIH_Toolbox_Pattern_Comparison_Processing_Speed_Test_Age_7+_v2.1	PSPAC141	1	1	43	1.466024	main
6001	2	pre	3	1	44	NIH_Toolbox_Pattern_Comparison_Processing_Speed_Test_Age_7+_v2.1	PSPAC038	2	1	44	1.434885	main
6001	2	pre	3	1	45	NIH_Toolbox_Pattern_Comparison_Processing_Speed_Test_Age_7+_v2.1	PSPAC065	1	1	45	1.559921	main
6001	2	pre	3	1	46	NIH_Toolbox_Pattern_Comparison_Processing_Speed_Test_Age_7+_v2.1	PSPAC060	2	1	46	1.319168	main
6001	2	pre	3	1	47	NIH_Toolbox_Pattern_Comparison_Processing_Speed_Test_Age_7+_v2.1	PSPAC068	1	1	47	1.292099	main
6001	2	pre	3	1	48	NIH_Toolbox_Pattern_Comparison_Processing_Speed_Test_Age_7+_v2.1	PSPAC066	1	1	48	1.371265	main
6001	2	pre	3	1	49	NIH_Toolbox_Pattern_Comparison_Processing_Speed_Test_Age_7+_v2.1	PSPAC064	2	1	49	1.602689	main
6001	2	pre	3	1	50	NIH_Toolbox_Pattern_Comparison_Processing_Speed_Test_Age_7+_v2.1	PSPAC073	1	1	50	1.412778	main
6001	2	pre	3	1	51	NIH_Toolbox_Pattern_Comparison_Processing_Speed_Test_Age_7+_v2.1	PSPAC106	2	1	51	1.37954	main
6001	2	pre	3	1	52	NIH_Toolbox_Pattern_Comparison_Processing_Speed_Test_Age_7+_v2.1	PSPAC131	1	1	52	1.520235	main
6001	2	pre	3	1	53	NIH_Toolbox_Pattern_Comparison_Processing_Speed_Test_Age_7+_v2.1	PSPAC164	1	1	53	1.627033	main
6001	2	pre	3	1	54	NIH_Toolbox_Pattern_Comparison_Processing_Speed_Test_Age_7+_v2.1	PSPAC072	1	1	54	1.289098	main
6001	2	pre	3	1	55	NIH_Toolbox_Pattern_Comparison_Processing_Speed_Test_Age_7+_v2.1	PSPAC082	2	1	55	1.417545	main
6001	2	pre	3	1	56	NIH_Toolbox_Pattern_Comparison_Processing_Speed_Test_Age_7+_v2.1	PSPAC085	1	1	56	1.508798	main
6001	2	pre	3	1	57	NIH_Toolbox_Pattern_Comparison_Processing_Speed_Test_Age_7+_v2.1	PSPAC088	1	1	57	1.604243	main
6001	2	pre	3	1	58	NIH_Toolbox_Pattern_Comparison_Processing_Speed_Test_Age_7+_v2.1	PSPAC142	2	1	58	1.413176	main
6001	2	pre	3	1	59	NIH_Toolbox_Pattern_Comparison_Processing_Speed_Test_Age_7+_v2.1	PSPAC136	2	1	59	1.460649	main
6001	2	pre	4	13	1	NIH_Toolbox_Flanker_Inhibitory_Control_and_Attention_Test_Age_12+_v2.1	FLANKER_ARROW_PRAC1	1	1	1	1.131087	practice
6001	2	pre	4	13	2	NIH_Toolbox_Flanker_Inhibitory_Control_and_Attention_Test_Age_12+_v2.1	FLANKER_ARROW_PRAC2	2	1	2	0.794923	practice
6001	2	pre	4	13	3	NIH_Toolbox_Flanker_Inhibitory_Control_and_Attention_Test_Age_12+_v2.1	FLANKER_ARROW_PRAC3	1	1	3	0.821096	practice
6001	2	pre	4	13	4	NIH_Toolbox_Flanker_Inhibitory_Control_and_Attention_Test_Age_12+_v2.1	FLANKER_ARROW_PRAC4	2	1	4	0.766535	practice
6001	2	pre	4	19	1	NIH_Toolbox_Flanker_Inhibitory_Control_and_Attention_Test_Age_12+_v2.1	FLANKER_ARROW_CONGRUENT1	1	1	5	0.7986	main
6001	2	pre	4	19	2	NIH_Toolbox_Flanker_Inhibitory_Control_and_Attention_Test_Age_12+_v2.1	FLANKER_ARROW_CONGRUENT2	2	1	6	0.673013	main
6001	2	pre	4	19	3	NIH_Toolbox_Flanker_Inhibitory_Control_and_Attention_Test_Age_12+_v2.1	FLANKER_ARROW_INCONGRUENT3	2	1	7	0.888962	main
6001	2	pre	4	19	4	NIH_Toolbox_Flanker_Inhibitory_Control_and_Attention_Test_Age_12+_v2.1	FLANKER_ARROW_CONGRUENT4	2	1	8	0.798546	main
6001	2	pre	4	19	5	NIH_Toolbox_Flanker_Inhibitory_Control_and_Attention_Test_Age_12+_v2.1	FLANKER_ARROW_INCONGRUENT5	2	1	9	0.721888	main
6001	2	pre	4	19	6	NIH_Toolbox_Flanker_Inhibitory_Control_and_Attention_Test_Age_12+_v2.1	FLANKER_ARROW_CONGRUENT6	2	1	10	0.667012	main
6001	2	pre	4	19	7	NIH_Toolbox_Flanker_Inhibitory_Control_and_Attention_Test_Age_12+_v2.1	FLANKER_ARROW_INCONGRUENT7	1	1	11	0.626965	main
6001	2	pre	4	19	8	NIH_Toolbox_Flanker_Inhibitory_Control_and_Attention_Test_Age_12+_v2.1	FLANKER_ARROW_CONGRUENT8	1	1	12	0.633141	main
6001	2	pre	4	19	9	NIH_Toolbox_Flanker_Inhibitory_Control_and_Attention_Test_Age_12+_v2.1	FLANKER_ARROW_CONGRUENT9	1	1	13	0.771902	main
6001	2	pre	4	19	10	NIH_Toolbox_Flanker_Inhibitory_Control_and_Attention_Test_Age_12+_v2.1	FLANKER_ARROW_INCONGRUENT10	1	1	14	0.796906	main
6001	2	pre	4	19	11	NIH_Toolbox_Flanker_Inhibitory_Control_and_Attention_Test_Age_12+_v2.1	FLANKER_ARROW_CONGRUENT11	1	1	15	0.679601	main
6001	2	pre	4	19	12	NIH_Toolbox_Flanker_Inhibitory_Control_and_Attention_Test_Age_12+_v2.1	FLANKER_ARROW_CONGRUENT12	2	1	16	0.6453	main
6001	2	pre	4	19	13	NIH_Toolbox_Flanker_Inhibitory_Control_and_Attention_Test_Age_12+_v2.1	FLANKER_ARROW_INCONGRUENT13	2	1	17	0.592345	main
6001	2	pre	4	19	14	NIH_Toolbox_Flanker_Inhibitory_Control_and_Attention_Test_Age_12+_v2.1	FLANKER_ARROW_CONGRUENT14	2	1	18	0.668642	main
6001	2	pre	4	19	15	NIH_Toolbox_Flanker_Inhibitory_Control_and_Attention_Test_Age_12+_v2.1	FLANKER_ARROW_INCONGRUENT15	2	1	19	0.522532	main
6001	2	pre	4	19	16	NIH_Toolbox_Flanker_Inhibitory_Control_and_Attention_Test_Age_12+_v2.1	FLANKER_ARROW_CONGRUENT16	1	1	20	0.613316	main
6001	2	pre	4	19	17	NIH_Toolbox_Flanker_Inhibitory_Control_and_Attention_Test_Age_12+_v2.1	FLANKER_ARROW_INCONGRUENT17	1	1	21	0.60154	main
6001	2	pre	4	19	18	NIH_Toolbox_Flanker_Inhibitory_Control_and_Attention_Test_Age_12+_v2.1	FLANKER_ARROW_CONGRUENT18	2	1	22	0.605134	main
6001	2	pre	4	19	19	NIH_Toolbox_Flanker_Inhibitory_Control_and_Attention_Test_Age_12+_v2.1	FLANKER_ARROW_CONGRUENT19	1	1	23	0.612593	main
6001	2	pre	4	19	20	NIH_Toolbox_Flanker_Inhibitory_Control_and_Attention_Test_Age_12+_v2.1	FLANKER_ARROW_INCONGRUENT20	2	1	24	0.634609	main
