trial	trial_type	stimulus	fontsize	response	accuracy	reactiontime
1	go	1	7	1	1	653
2	go	4	16	1	1	433
3	go	1	13	1	1	375
4	go	1	7	1	1	367
5	go	5	16	1	1	360
6	go	1	16	1	1	353
7	go	8	7	1	1	434
8	go	6	10	1	1	360
9	go	5	7	1	1	300
10	go	7	10	1	1	323
11	go	7	7	1	1	326
12	go	9	16	1	1	307
13	go	2	13	1	1	390
14	nogo	3	16	1	0	273
15	go	8	7	1	1	443
16	go	5	16	1	1	343
17	go	5	16	1	1	316
18	go	6	4	1	1	303
19	go	1	7	1	1	246
20	go	8	7	1	1	259
21	go	9	16	1	1	281
22	go	8	13	1	1	316
23	go	2	10	1	1	429
24	go	7	10	1	1	388
25	go	6	13	1	1	345
26	go	4	16	1	1	447
27	go	8	10	1	1	400
28	go	6	7	1	1	364
29	go	8	16	1	1	303
30	go	2	7	1	1	465
31	go	9	16	1	1	364
32	go	8	10	1	1	326
33	go	9	4	1	1	421
34	go	5	16	1	1	364
35	go	2	4	1	1	367
36	go	4	13	1	1	358
37	nogo	3	16	0	1	n/a
38	go	5	7	1	1	644
39	go	5	16	1	1	359
40	go	6	10	1	1	380
41	nogo	3	13	1	0	349
42	go	2	16	1	1	467
43	go	7	10	1	1	402
44	go	5	7	1	1	435
45	go	7	13	1	1	382
46	go	8	13	1	1	465
47	go	2	10	1	1	430
48	go	7	7	1	1	472
49	go	4	13	1	1	470
50	go	1	13	1	1	467
51	nogo	3	7	0	1	n/a
52	go	7	4	1	1	575
53	go	4	4	1	1	368
54	go	6	16	1	1	331
55	go	4	4	1	1	438
56	go	8	7	1	1	547
57	go	8	7	1	1	445
58	go	4	4	1	1	414
59	go	1	13	1	1	430
60	go	9	16	1	1	376
61	go	9	10	1	1	477
62	go	4	7	1	1	475
63	go	8	4	1	1	440
64	go	2	13	1	1	386
65	go	2	7	1	1	368
66	go	8	10	1	1	372
67	go	7	10	1	1	328
68	nogo	3	13	1	0	334
69	go	4	16	1	1	393
70	go	7	4	1	1	364
71	go	1	4	1	1	325
72	go	4	10	1	1	269
73	nogo	3	7	1	0	348
74	go	5	16	1	1	306
75	go	9	16	1	1	422
76	go	8	7	1	1	414
77	go	4	13	1	1	362
78	go	7	7	1	1	497
79	go	4	4	1	1	489
80	go	1	7	1	1	463
81	go	2	10	1	1	367
82	go	6	4	1	1	472
83	go	6	16	1	1	532
84	go	4	4	1	1	523
85	go	6	16	1	1	447
86	go	6	16	1	1	348
87	go	9	10	1	1	513
88	go	9	7	1	1	507
89	go	7	13	1	1	459
90	go	6	7	1	1	480
91	go	4	10	1	1	532
92	go	1	16	1	1	417
93	go	7	4	1	1	456
94	nogo	3	10	1	0	269
95	nogo	3	4	1	0	424
96	go	9	7	1	1	349
97	go	8	4	1	1	454
98	go	2	4	1	1	361
99	go	7	13	1	1	440
100	go	6	7	1	1	414
101	go	6	13	1	1	379
102	go	1	16	1	1	394
103	go	9	7	1	1	363
104	go	9	4	1	1	402
105	nogo	3	4	0	1	n/a
106	go	1	7	1	1	449
107	go	4	13	1	1	353
108	go	1	10	1	1	366
109	go	1	4	1	1	272
110	go	2	16	1	1	374
111	nogo	3	4	0	1	n/a
112	go	6	10	1	1	626
113	go	8	16	1	1	413
114	go	5	16	1	1	411
115	go	9	7	1	1	444
116	nogo	3	7	0	1	n/a
117	go	9	10	1	1	517
118	go	5	10	1	1	304
119	go	5	4	1	1	329
120	go	4	4	1	1	536
121	go	2	4	1	1	394
122	go	6	10	1	1	436
123	go	8	16	1	1	357
124	nogo	3	10	1	0	303
125	go	8	4	1	1	281
126	go	4	13	1	1	272
127	go	4	13	1	1	347
128	go	2	4	1	1	386
129	go	5	4	1	1	270
130	go	2	10	1	1	315
131	go	1	4	1	1	492
132	go	1	13	1	1	439
133	go	5	7	1	1	456
134	go	9	13	1	1	426
135	go	5	7	1	1	419
136	go	4	16	1	1	409
137	go	5	10	1	1	257
138	nogo	3	4	1	0	351
139	go	4	4	1	1	271
140	go	2	4	1	1	391
141	go	5	4	1	1	462
142	go	6	13	1	1	446
143	go	9	13	1	1	426
144	go	4	13	1	1	406
145	go	6	13	1	1	476
146	nogo	3	10	1	0	323
147	go	1	7	1	1	524
148	go	5	10	1	1	680
149	go	5	7	1	1	493
150	go	4	7	1	1	315
151	go	6	10	1	1	468
152	go	4	4	1	1	487
153	go	5	4	1	1	687
154	go	5	13	1	1	528
155	go	6	16	1	1	413
156	go	2	10	1	1	130
157	nogo	3	16	0	1	n/a
158	go	8	10	1	1	699
159	nogo	3	7	1	0	325
160	go	1	13	1	1	461
161	go	9	4	1	1	684
162	nogo	3	13	0	1	n/a
163	go	2	13	1	1	306
164	go	7	7	1	1	466
165	go	6	16	1	1	724
166	go	6	16	1	1	675
167	go	2	13	1	1	690
168	go	2	13	1	1	503
169	go	8	13	1	1	389
170	go	8	4	1	1	501
171	go	6	7	1	1	390
172	nogo	3	16	1	0	382
173	go	2	13	1	1	421
174	go	1	16	1	1	469
175	go	6	16	1	1	474
176	go	1	16	1	1	522
177	nogo	3	4	0	1	n/a
178	go	1	13	1	1	855
179	go	7	4	1	1	460
180	go	2	10	1	1	452
181	go	9	10	1	1	507
182	go	9	10	1	1	483
183	go	8	7	1	1	474
184	go	7	13	1	1	455
185	go	2	13	1	1	485
186	go	7	13	1	1	475
187	go	9	7	1	1	536
188	go	7	7	1	1	504
189	go	1	10	1	1	475
190	go	4	7	1	1	468
191	go	8	13	1	1	445
192	go	5	4	1	1	356
193	go	9	7	1	1	473
194	go	5	10	1	1	369
195	go	6	4	1	1	696
196	go	9	16	1	1	462
197	nogo	3	13	0	1	n/a
198	go	9	16	1	1	544
199	go	8	4	1	1	307
200	go	7	13	1	1	348
201	nogo	3	10	0	1	n/a
202	go	4	10	1	1	680
203	nogo	3	10	0	1	n/a
204	go	1	10	1	1	721
205	go	6	10	1	1	418
206	go	5	13	1	1	433
207	go	9	16	1	1	453
208	go	2	16	1	1	384
209	go	7	4	1	1	478
210	go	7	10	1	1	426
211	go	1	10	1	1	372
212	go	8	7	1	1	433
213	go	7	4	1	1	360
214	go	1	16	1	1	349
215	go	7	4	1	1	320
216	nogo	3	13	0	1	n/a
217	nogo	3	10	1	0	411
218	go	2	16	1	1	337
219	go	2	4	1	1	438
220	go	7	7	1	1	424
221	go	5	16	1	1	428
222	nogo	3	10	0	1	n/a
223	go	7	13	1	1	624
224	go	8	13	1	1	337
225	go	9	10	1	1	340
