trial	response	correct_response	accuracy	reaction_time
1	l	j	0	1024
2	k	k	1	891
3	l	l	1	865
4	k	k	1	1651
5	l	l	1	679
6	k	l	0	1150
7	j	j	1	792
8	j	j	1	1327
9	l	l	1	797
10	j	j	1	1180
11	l	l	1	727
12	l	l	1	806
13	k	k	1	838
14	n/a	l	0	n/a
15	l	l	1	783
16	j	j	1	1373
17	l	k	0	936
18	k	j	0	829
19	l	l	1	665
20	k	k	1	788
